Version,pt_num,Age,Gender,Handedness,trial_nbr,block_number,rt,soa,acc,category,choiced_category,manipulation,difficulty,mask,type_occl,size_occl,filename,mask_filename,task,pressed_key,correct_key,Experiment Duration
V3,28,23,Female,Right,1,Training,4.52862949995324,0.05,false,cat,bird,occlusion,low,mask,partial viewing,many small,Training_Stimulus\manysmall_partialViewing_low_cat432.png,mask_img/000000006842.png,training,e,i,153.0767535000341
V3,28,23,Female,Right,2,Training,1.886733099934645,0.05,true,bus,bus,occlusion,control,mask,partial viewing,few large,Training_Stimulus\fewlarge_partialViewing_control_bus180.png,mask_img/000000000394.png,training,q,q,156.06127810000908
V3,28,23,Female,Right,3,Training,1.0292126999702305,0.025,true,bus,bus,occlusion,high,mask,partial viewing,few large,Training_Stimulus\fewlarge_partialViewing_high_bus180.png,mask_img/000000001053.png,training,q,q,158.60764940001536
V3,28,23,Female,Right,4,Training,2.973108600010164,0.1,false,bird,tree,occlusion,high,mask,partial viewing,many small,Training_Stimulus\manysmall_partialViewing_high_bird4.png,mask_img/000000005418.png,training,u,e,163.14028589997906
V3,28,23,Female,Right,5,Training,2.101078400039114,0.025,true,cat,cat,occlusion,high,mask,partial viewing,few large,Training_Stimulus\fewlarge_partialViewing_high_cat432.png,mask_img/000000001647.png,training,i,i,166.53086749999784
V3,28,23,Female,Right,6,Training,3.287526599946432,0.1,false,cat,person,occlusion,high,mask,partial viewing,many small,Training_Stimulus\manysmall_partialViewing_high_cat432.png,mask_img/000000005862.png,training,o,i,171.15742689999752
V3,28,23,Female,Right,7,Training,1.621243100031279,0.05,true,banana,banana,occlusion,control,mask,partial viewing,many small,Training_Stimulus\manysmall_partialViewing_control_banana454.png,mask_img/000000004239.png,training,w,w,174.04805410001427
V3,28,23,Female,Right,8,Training,2.9974765999941155,0.05,false,bird,building,occlusion,high,mask,partial viewing,few large,Training_Stimulus\fewlarge_partialViewing_high_bird4.png,mask_img/000000000731.png,training,r,e,178.50115120003466
V3,28,23,Female,Right,9,Training,4.8495420999825,0.025,false,bus,bird,occlusion,low,mask,partial viewing,many small,Training_Stimulus\manysmall_partialViewing_low_bus180.png,mask_img/000000006709.png,training,e,q,184.70577940007206
V3,28,23,Female,Right,10,Training,2.2620860999450088,0.025,true,building,building,occlusion,low,mask,partial viewing,many small,Training_Stimulus\manysmall_partialViewing_low_building24.png,mask_img/000000006489.png,training,r,r,188.4713699000422
V3,28,23,Female,Right,11,Training,3.431784400017932,0.025,false,cat,firehydrant,occlusion,control,mask,partial viewing,many small,Training_Stimulus\manysmall_partialViewing_control_cat432.png,mask_img/000000005105.png,training,p,i,193.14368039998226
V3,28,23,Female,Right,12,Training,1.6380382999777794,0.1,true,banana,banana,occlusion,low,mask,partial viewing,many small,Training_Stimulus\manysmall_partialViewing_low_banana454.png,mask_img/000000006437.png,training,w,w,195.91071500000544
V3,28,23,Female,Right,13,Training,1.4166847000597045,0.1,true,bus,bus,occlusion,low,mask,partial viewing,many small,Training_Stimulus\manysmall_partialViewing_low_bus180.png,mask_img/000000006709.png,training,q,q,198.49941920000128
V3,28,23,Female,Right,14,Training,0.764208700042218,0.025,false,building,bus,occlusion,high,mask,partial viewing,many small,Training_Stimulus\manysmall_partialViewing_high_building24.png,mask_img/000000005574.png,training,q,r,200.45311610004865
V3,28,23,Female,Right,15,Training,2.361765200039372,0.025,false,bird,tree,occlusion,high,mask,partial viewing,many small,Training_Stimulus\manysmall_partialViewing_high_bird4.png,mask_img/000000005418.png,training,u,e,204.00215640000533
V3,28,23,Female,Right,16,Training,2.3668981000082567,0.1,true,person,person,occlusion,control,mask,partial viewing,many small,Training_Stimulus\manysmall_partialViewing_control_person189.png,mask_img/000000005142.png,training,o,o,207.90843489998952
V3,28,23,Female,Right,17,Training,1.353401199914515,0.1,true,firehydrant,firehydrant,occlusion,control,mask,partial viewing,many small,Training_Stimulus\manysmall_partialViewing_control_firehydrant90.png,mask_img/000000005131.png,training,p,p,210.72092340001836
V3,28,23,Female,Right,18,Training,2.393591200001538,0.025,true,tree,tree,occlusion,control,mask,partial viewing,many small,Training_Stimulus\manysmall_partialViewing_control_tree9.png,mask_img/000000005282.png,training,u,u,214.37721770000644
V3,28,23,Female,Right,19,Training,2.7933775999117643,0.1,true,cat,cat,occlusion,control,mask,partial viewing,few large,Training_Stimulus\fewlarge_partialViewing_control_cat432.png,mask_img/000000000438.png,training,i,i,218.58028029999696
V3,28,23,Female,Right,20,Training,2.0829923000419512,0.1,true,tree,tree,occlusion,high,mask,partial viewing,few large,Training_Stimulus\fewlarge_partialViewing_high_tree9.png,mask_img/000000002197.png,training,u,u,221.938700000057
V3,28,23,Female,Right,21,Training,1.6661176999332383,0.1,true,banana,banana,occlusion,low,mask,partial viewing,few large,Training_Stimulus\fewlarge_partialViewing_low_banana454.png,mask_img/000000002337.png,training,w,w,224.9856715000933
V3,28,23,Female,Right,22,Training,3.408033699961379,0.05,true,tree,tree,occlusion,control,mask,partial viewing,few large,Training_Stimulus\fewlarge_partialViewing_control_tree9.png,mask_img/000000000626.png,training,u,u,229.9701008000411
V3,28,23,Female,Right,23,Training,1.6686958000063896,0.05,true,building,building,occlusion,high,mask,partial viewing,many small,Training_Stimulus\manysmall_partialViewing_high_building24.png,mask_img/000000005574.png,training,r,r,232.737205500016
V3,28,23,Female,Right,1,Block 1,1.4571856000693515,0.025,false,building,bird,occlusion,control,mask,partial viewing,few large,Stimulus\all_stim\occlusion\partialviewing\fewlarge\control\fewlarge_partialViewing_control_building1.png,mask_img/000000003084.png,experiment,e,r,245.79516630002763
V3,28,23,Female,Right,2,Block 1,1.3282004999928176,0.05,true,banana,banana,occlusion,control,mask,partial viewing,few large,Stimulus\all_stim\occlusion\partialviewing\fewlarge\control\fewlarge_partialViewing_control_banana2.png,mask_img/000000000312.png,experiment,w,w,248.26660319999792
V3,28,23,Female,Right,3,Block 1,1.422570800059475,0.025,true,cat,cat,occlusion,high,mask,partial viewing,few large,Stimulus\all_stim\occlusion\partialviewing\fewlarge\high\fewlarge_partialViewing_high_cat4.png,mask_img/000000017364.png,experiment,i,i,250.63447749998886
V3,28,23,Female,Right,4,Block 1,1.3675054999766871,0.1,true,building,building,occlusion,high,mask,partial viewing,few large,Stimulus\all_stim\occlusion\partialviewing\fewlarge\high\fewlarge_partialViewing_high_building8.png,mask_img/000000015366.png,experiment,r,r,252.86633920005988
V3,28,23,Female,Right,5,Block 1,1.2578231000807136,0.05,true,building,building,occlusion,high,mask,partial viewing,many small,Stimulus\all_stim\occlusion\partialviewing\manysmall\high\manysmall_partialViewing_high_building6.png,mask_img/000000046155.png,experiment,r,r,255.02828460000455
V3,28,23,Female,Right,6,Block 1,0.9996769999852404,0.1,true,bus,bus,occlusion,low,mask,partial viewing,few large,Stimulus\all_stim\occlusion\partialviewing\fewlarge\low\fewlarge_partialViewing_low_bus10.png,mask_img/000000025855.png,experiment,q,q,256.73854430008214
V3,28,23,Female,Right,7,Block 1,1.492534999968484,0.025,false,building,cat,occlusion,low,mask,partial viewing,many small,Stimulus\all_stim\occlusion\partialviewing\manysmall\low\manysmall_partialViewing_low_building8.png,mask_img/000000058073.png,experiment,i,r,258.93054510001093
V3,28,23,Female,Right,8,Block 1,1.215392200043425,0.05,true,firehydrant,firehydrant,occlusion,control,mask,partial viewing,many small,Stimulus\all_stim\occlusion\partialviewing\manysmall\control\manysmall_partialViewing_control_firehydrant8.png,mask_img/000000039553.png,experiment,p,p,260.93886029999703
V3,28,23,Female,Right,9,Block 1,1.2866300999885425,0.1,true,building,building,occlusion,control,mask,partial viewing,few large,Stimulus\all_stim\occlusion\partialviewing\fewlarge\control\fewlarge_partialViewing_control_building1.png,mask_img/000000003084.png,experiment,r,r,263.22636080009397
V3,28,23,Female,Right,10,Block 1,1.425723599968478,0.05,true,banana,banana,occlusion,control,mask,partial viewing,many small,Stimulus\all_stim\occlusion\partialviewing\manysmall\control\manysmall_partialViewing_control_banana1.png,mask_img/000000033073.png,experiment,w,w,265.78657130000647
V3,28,23,Female,Right,11,Block 1,2.015255399979651,0.025,true,person,person,occlusion,control,mask,partial viewing,few large,Stimulus\all_stim\occlusion\partialviewing\fewlarge\control\fewlarge_partialViewing_control_person6.png,mask_img/000000009469.png,experiment,o,o,268.8584056000691
V3,28,23,Female,Right,12,Block 1,1.5557463000295684,0.025,true,cat,cat,occlusion,low,mask,partial viewing,many small,Stimulus\all_stim\occlusion\partialviewing\manysmall\low\manysmall_partialViewing_low_cat6.png,mask_img/000000059918.png,experiment,i,i,271.2990590999834
V3,28,23,Female,Right,13,Block 1,1.1985539000015706,0.025,true,banana,banana,occlusion,high,mask,partial viewing,many small,Stimulus\all_stim\occlusion\partialviewing\manysmall\high\manysmall_partialViewing_high_banana10.png,mask_img/000000042196.png,experiment,w,w,273.51444509997964
V3,28,23,Female,Right,14,Block 1,0.6718317000195384,0.1,true,banana,banana,occlusion,low,mask,partial viewing,few large,Stimulus\all_stim\occlusion\partialviewing\fewlarge\low\fewlarge_partialViewing_low_banana6.png,mask_img/000000023137.png,experiment,w,w,275.34110329998657
V3,28,23,Female,Right,15,Block 1,1.322484300006181,0.1,true,person,person,occlusion,control,mask,partial viewing,few large,Stimulus\all_stim\occlusion\partialviewing\fewlarge\control\fewlarge_partialViewing_control_person8.png,mask_img/000000009729.png,experiment,o,o,277.7304804000305
V3,28,23,Female,Right,16,Block 1,1.6642885999754071,0.1,true,bus,bus,occlusion,low,mask,partial viewing,few large,Stimulus\all_stim\occlusion\partialviewing\fewlarge\low\fewlarge_partialViewing_low_bus1.png,mask_img/000000025820.png,experiment,q,q,280.4428970000008
V3,28,23,Female,Right,17,Block 1,0.611100299982354,0.05,true,firehydrant,firehydrant,occlusion,control,mask,partial viewing,many small,Stimulus\all_stim\occlusion\partialviewing\manysmall\control\manysmall_partialViewing_control_firehydrant1.png,mask_img/000000039012.png,experiment,p,p,281.99439120001625
V3,28,23,Female,Right,18,Block 1,0.7173396999714896,0.025,true,bus,bus,occlusion,control,mask,partial viewing,few large,Stimulus\all_stim\occlusion\partialviewing\fewlarge\control\fewlarge_partialViewing_control_bus3.png,mask_img/000000005418.png,experiment,q,q,283.74042260006536
V3,28,23,Female,Right,19,Block 1,0.7291406999574974,0.05,true,person,person,occlusion,control,mask,partial viewing,many small,Stimulus\all_stim\occlusion\partialviewing\manysmall\control\manysmall_partialViewing_control_person2.png,mask_img/000000039971.png,experiment,o,o,285.2185995000182
V3,28,23,Female,Right,20,Block 1,1.601440400001593,0.05,true,building,building,occlusion,control,mask,partial viewing,many small,Stimulus\all_stim\occlusion\partialviewing\manysmall\control\manysmall_partialViewing_control_building10.png,mask_img/000000035857.png,experiment,r,r,287.8025662000291
V3,28,23,Female,Right,21,Block 1,0.882259099977091,0.1,true,building,building,occlusion,control,mask,partial viewing,many small,Stimulus\all_stim\occlusion\partialviewing\manysmall\control\manysmall_partialViewing_control_building5.png,mask_img/000000036004.png,experiment,r,r,289.4263539999956
V3,28,23,Female,Right,22,Block 1,1.5500434000277892,0.05,false,bird,person,occlusion,high,mask,partial viewing,many small,Stimulus\all_stim\occlusion\partialviewing\manysmall\high\manysmall_partialViewing_high_bird6.png,mask_img/000000044523.png,experiment,o,e,292.0346189000411
V3,28,23,Female,Right,23,Block 1,0.7167928999988362,0.05,true,firehydrant,firehydrant,occlusion,low,mask,partial viewing,many small,Stimulus\all_stim\occlusion\partialviewing\manysmall\low\manysmall_partialViewing_low_firehydrant2.png,mask_img/000000060548.png,experiment,p,p,293.73057340004016
V3,28,23,Female,Right,24,Block 1,1.487387100001797,0.1,true,building,building,occlusion,control,mask,partial viewing,few large,Stimulus\all_stim\occlusion\partialviewing\fewlarge\control\fewlarge_partialViewing_control_building5.png,mask_img/000000004642.png,experiment,r,r,296.2825724000577
V3,28,23,Female,Right,25,Block 1,0.6418852000497282,0.1,true,bus,bus,occlusion,control,mask,partial viewing,few large,Stimulus\all_stim\occlusion\partialviewing\fewlarge\control\fewlarge_partialViewing_control_bus2.png,mask_img/000000005359.png,experiment,q,q,297.6489601000212
V3,28,23,Female,Right,26,Block 1,0.2704936000518501,0.025,false,cat,bus,occlusion,control,mask,partial viewing,many small,Stimulus\all_stim\occlusion\partialviewing\manysmall\control\manysmall_partialViewing_control_cat2.png,mask_img/000000038375.png,experiment,q,i,298.91597410000395
V3,28,23,Female,Right,27,Block 1,0.6191191000398248,0.1,false,cat,person,occlusion,control,mask,partial viewing,few large,Stimulus\all_stim\occlusion\partialviewing\fewlarge\control\fewlarge_partialViewing_control_cat4.png,mask_img/000000006842.png,experiment,o,i,300.6002125000814
V3,28,23,Female,Right,28,Block 1,2.359629200072959,0.025,true,bird,bird,occlusion,low,mask,partial viewing,few large,Stimulus\all_stim\occlusion\partialviewing\fewlarge\low\fewlarge_partialViewing_low_bird3.png,mask_img/000000024157.png,experiment,e,e,303.97055420000106
V3,28,23,Female,Right,29,Block 1,1.226496099960059,0.1,true,person,person,occlusion,low,mask,partial viewing,few large,Stimulus\all_stim\occlusion\partialviewing\fewlarge\low\fewlarge_partialViewing_low_person10.png,mask_img/000000029128.png,experiment,o,o,306.1305161000928
V3,28,23,Female,Right,30,Block 1,1.7341151000000536,0.05,false,firehydrant,bird,occlusion,high,mask,partial viewing,many small,Stimulus\all_stim\occlusion\partialviewing\manysmall\high\manysmall_partialViewing_high_firehydrant2.png,mask_img/000000050239.png,experiment,e,p,308.9550220000092
V3,28,23,Female,Right,31,Block 1,1.582345400005579,0.1,true,building,building,occlusion,high,mask,partial viewing,many small,Stimulus\all_stim\occlusion\partialviewing\manysmall\high\manysmall_partialViewing_high_building2.png,mask_img/000000045306.png,experiment,r,r,311.4841904999921
V3,28,23,Female,Right,32,Block 1,0.8843620999250561,0.1,true,person,person,occlusion,high,mask,partial viewing,few large,Stimulus\all_stim\occlusion\partialviewing\fewlarge\high\fewlarge_partialViewing_high_person3.png,mask_img/000000020147.png,experiment,o,o,313.258595900028
V3,28,23,Female,Right,33,Block 1,1.101693700067699,0.05,false,bird,banana,occlusion,control,mask,partial viewing,few large,Stimulus\all_stim\occlusion\partialviewing\fewlarge\control\fewlarge_partialViewing_control_bird7.png,mask_img/000000002774.png,experiment,w,e,315.4025296000764
V3,28,23,Female,Right,34,Block 1,2.055612799944356,0.025,false,cat,building,occlusion,high,mask,partial viewing,many small,Stimulus\all_stim\occlusion\partialviewing\manysmall\high\manysmall_partialViewing_high_cat8.png,mask_img/000000049763.png,experiment,r,i,318.17043410008773
V3,28,23,Female,Right,35,Block 1,1.0067918000277132,0.05,true,person,person,occlusion,low,mask,partial viewing,many small,Stimulus\all_stim\occlusion\partialviewing\manysmall\low\manysmall_partialViewing_low_person10.png,mask_img/000000061838.png,experiment,o,o,320.1944850999862
V3,28,23,Female,Right,36,Block 1,1.467341999989003,0.1,false,bus,building,occlusion,high,mask,partial viewing,few large,Stimulus\all_stim\occlusion\partialviewing\fewlarge\high\fewlarge_partialViewing_high_bus3.png,mask_img/000000015908.png,experiment,r,q,322.65076720004436
V3,28,23,Female,Right,37,Block 1,0.91243490006309,0.025,false,cat,person,occlusion,control,mask,partial viewing,many small,Stimulus\all_stim\occlusion\partialviewing\manysmall\control\manysmall_partialViewing_control_cat7.png,mask_img/000000038798.png,experiment,o,i,324.6184384999797
V3,28,23,Female,Right,38,Block 1,1.7470591000746936,0.05,true,bird,bird,occlusion,high,mask,partial viewing,few large,Stimulus\all_stim\occlusion\partialviewing\fewlarge\high\fewlarge_partialViewing_high_bird9.png,mask_img/000000014175.png,experiment,e,e,327.3865527000744
V3,28,23,Female,Right,39,Block 1,1.1122955000028014,0.1,true,firehydrant,firehydrant,occlusion,control,mask,partial viewing,few large,Stimulus\all_stim\occlusion\partialviewing\fewlarge\control\fewlarge_partialViewing_control_firehydrant1.png,mask_img/000000007740.png,experiment,p,p,329.2984037999995
V3,28,23,Female,Right,40,Block 1,1.573566099978052,0.05,true,bird,bird,occlusion,control,mask,partial viewing,many small,Stimulus\all_stim\occlusion\partialviewing\manysmall\control\manysmall_partialViewing_control_bird1.png,mask_img/000000034113.png,experiment,e,e,331.6587144000223
V3,28,23,Female,Right,41,Block 1,1.3174637999618426,0.1,false,tree,cat,occlusion,control,mask,partial viewing,many small,Stimulus\all_stim\occlusion\partialviewing\manysmall\control\manysmall_partialViewing_control_tree2.png,mask_img/000000041008.png,experiment,i,u,334.0825855000876
V3,28,23,Female,Right,42,Block 1,2.2790989000350237,0.1,false,bus,tree,occlusion,high,mask,partial viewing,few large,Stimulus\all_stim\occlusion\partialviewing\fewlarge\high\fewlarge_partialViewing_high_bus2.png,mask_img/000000015862.png,experiment,u,q,337.31465509999543
V3,28,23,Female,Right,43,Block 1,1.1969218000303954,0.025,true,tree,tree,occlusion,low,mask,partial viewing,few large,Stimulus\all_stim\occlusion\partialviewing\fewlarge\low\fewlarge_partialViewing_low_tree7.png,mask_img/000000032906.png,experiment,u,u,339.6103843000019
V3,28,23,Female,Right,44,Block 1,0.645492700044997,0.025,true,tree,tree,occlusion,high,mask,partial viewing,few large,Stimulus\all_stim\occlusion\partialviewing\fewlarge\high\fewlarge_partialViewing_high_tree3.png,mask_img/000000021942.png,experiment,u,u,341.3865656000562
V3,28,23,Female,Right,45,Block 1,1.3113860000157729,0.05,true,banana,banana,occlusion,control,mask,partial viewing,many small,Stimulus\all_stim\occlusion\partialviewing\manysmall\control\manysmall_partialViewing_control_banana10.png,mask_img/000000033074.png,experiment,w,w,343.6904733000556
V3,28,23,Female,Right,46,Block 1,1.3794341000029817,0.025,true,person,person,occlusion,high,mask,partial viewing,few large,Stimulus\all_stim\occlusion\partialviewing\fewlarge\high\fewlarge_partialViewing_high_person3.png,mask_img/000000020147.png,experiment,o,o,345.7546574000735
V3,28,23,Female,Right,47,Block 1,1.6236569000175223,0.1,true,person,person,occlusion,high,mask,partial viewing,few large,Stimulus\all_stim\occlusion\partialviewing\fewlarge\high\fewlarge_partialViewing_high_person10.png,mask_img/000000019927.png,experiment,o,o,348.2985637000529
V3,28,23,Female,Right,48,Block 1,0.8304889999562874,0.1,true,banana,banana,occlusion,control,mask,partial viewing,few large,Stimulus\all_stim\occlusion\partialviewing\fewlarge\control\fewlarge_partialViewing_control_banana3.png,mask_img/000000000394.png,experiment,w,w,350.1545826999936
V3,28,23,Female,Right,49,Block 1,0.6203465999569744,0.1,true,person,person,occlusion,control,mask,partial viewing,few large,Stimulus\all_stim\occlusion\partialviewing\fewlarge\control\fewlarge_partialViewing_control_person10.png,mask_img/000000008469.png,experiment,o,o,351.78702829999384
V3,28,23,Female,Right,50,Block 1,0.8941892000148073,0.025,true,person,person,occlusion,high,mask,partial viewing,many small,Stimulus\all_stim\occlusion\partialviewing\manysmall\high\manysmall_partialViewing_high_person10.png,mask_img/000000051453.png,experiment,o,o,353.8105660000583
V3,28,23,Female,Right,51,Block 1,0.716185599914752,0.025,true,banana,banana,occlusion,low,mask,partial viewing,few large,Stimulus\all_stim\occlusion\partialviewing\fewlarge\low\fewlarge_partialViewing_low_banana1.png,mask_img/000000022545.png,experiment,w,w,355.6284266000148
V3,28,23,Female,Right,52,Block 1,1.0051953999791294,0.1,true,building,building,occlusion,low,mask,partial viewing,many small,Stimulus\all_stim\occlusion\partialviewing\manysmall\low\manysmall_partialViewing_low_building10.png,mask_img/000000057068.png,experiment,r,r,357.3164940000279
V3,28,23,Female,Right,53,Block 1,1.890094600035809,0.05,true,tree,tree,occlusion,high,mask,partial viewing,many small,Stimulus\all_stim\occlusion\partialviewing\manysmall\high\manysmall_partialViewing_high_tree9.png,mask_img/000000054336.png,experiment,u,u,360.35510799998883
V3,28,23,Female,Right,54,Block 1,1.1558351999847218,0.05,true,building,building,occlusion,low,mask,partial viewing,many small,Stimulus\all_stim\occlusion\partialviewing\manysmall\low\manysmall_partialViewing_low_building10.png,mask_img/000000057068.png,experiment,r,r,362.6421240000054
V3,28,23,Female,Right,55,Block 1,0.8165584999369457,0.1,true,firehydrant,firehydrant,occlusion,high,mask,partial viewing,many small,Stimulus\all_stim\occlusion\partialviewing\manysmall\high\manysmall_partialViewing_high_firehydrant4.png,mask_img/000000050412.png,experiment,p,p,364.34648539999034
V3,28,23,Female,Right,56,Block 1,0.9039129000157118,0.025,true,person,person,occlusion,control,mask,partial viewing,many small,Stimulus\all_stim\occlusion\partialviewing\manysmall\control\manysmall_partialViewing_control_person6.png,mask_img/000000040325.png,experiment,o,o,366.3145148000913
V3,28,23,Female,Right,57,Block 1,0.649276899988763,0.05,true,person,person,occlusion,low,mask,partial viewing,many small,Stimulus\all_stim\occlusion\partialviewing\manysmall\low\manysmall_partialViewing_low_person2.png,mask_img/000000061867.png,experiment,o,o,367.9787118000677
V3,28,23,Female,Right,58,Block 1,1.4562885999912396,0.1,false,tree,cat,occlusion,high,mask,partial viewing,many small,Stimulus\all_stim\occlusion\partialviewing\manysmall\high\manysmall_partialViewing_high_tree10.png,mask_img/000000052818.png,experiment,i,u,370.16262190009
V3,28,23,Female,Right,59,Block 1,1.9495677000377327,0.1,false,building,tree,occlusion,high,mask,partial viewing,few large,Stimulus\all_stim\occlusion\partialviewing\fewlarge\high\fewlarge_partialViewing_high_building1.png,mask_img/000000014335.png,experiment,u,r,372.9949234999949
V3,28,23,Female,Right,60,Block 1,1.2328856999520212,0.05,true,bird,bird,occlusion,control,mask,partial viewing,many small,Stimulus\all_stim\occlusion\partialviewing\manysmall\control\manysmall_partialViewing_control_bird9.png,mask_img/000000035514.png,experiment,e,e,375.2745215999894
V3,28,23,Female,Right,61,Block 1,0.6910407999530435,0.1,false,tree,cat,occlusion,high,mask,partial viewing,few large,Stimulus\all_stim\occlusion\partialviewing\fewlarge\high\fewlarge_partialViewing_high_tree9.png,mask_img/000000022440.png,experiment,i,u,377.0800737000536
V3,28,23,Female,Right,62,Block 1,1.2685278001008555,0.1,true,person,person,occlusion,low,mask,partial viewing,many small,Stimulus\all_stim\occlusion\partialviewing\manysmall\low\manysmall_partialViewing_low_person4.png,mask_img/000000062131.png,experiment,o,o,379.59464540006593
V3,28,23,Female,Right,63,Block 1,1.0129787999903783,0.025,true,firehydrant,firehydrant,occlusion,low,mask,partial viewing,many small,Stimulus\all_stim\occlusion\partialviewing\manysmall\low\manysmall_partialViewing_low_firehydrant2.png,mask_img/000000060548.png,experiment,p,p,381.5386265000561
V3,28,23,Female,Right,64,Block 1,0.6306548999855295,0.025,true,firehydrant,firehydrant,occlusion,low,mask,partial viewing,many small,Stimulus\all_stim\occlusion\partialviewing\manysmall\low\manysmall_partialViewing_low_firehydrant7.png,mask_img/000000061084.png,experiment,p,p,383.29051279998384
V3,28,23,Female,Right,65,Block 1,0.6998987999977544,0.025,true,building,building,occlusion,control,mask,partial viewing,few large,Stimulus\all_stim\occlusion\partialviewing\fewlarge\control\fewlarge_partialViewing_control_building3.png,mask_img/000000003694.png,experiment,r,r,384.8264819000615
V3,28,23,Female,Right,66,Block 1,1.1223995999898762,0.05,true,cat,cat,occlusion,control,mask,partial viewing,many small,Stimulus\all_stim\occlusion\partialviewing\manysmall\control\manysmall_partialViewing_control_cat3.png,mask_img/000000038381.png,experiment,i,i,386.9073258000426
V3,28,23,Female,Right,67,Block 1,2.2569897999055684,0.05,true,tree,tree,occlusion,high,mask,partial viewing,few large,Stimulus\all_stim\occlusion\partialviewing\fewlarge\high\fewlarge_partialViewing_high_tree8.png,mask_img/000000022355.png,experiment,u,u,389.99433720007073
V3,28,23,Female,Right,68,Block 1,0.6902619000757113,0.05,true,tree,tree,occlusion,control,mask,partial viewing,many small,Stimulus\all_stim\occlusion\partialviewing\manysmall\control\manysmall_partialViewing_control_tree10.png,mask_img/000000040948.png,experiment,u,u,391.8345054000383
V3,28,23,Female,Right,69,Block 1,2.8881040000123903,0.1,true,bus,bus,occlusion,low,mask,partial viewing,few large,Stimulus\all_stim\occlusion\partialviewing\fewlarge\low\fewlarge_partialViewing_low_bus8.png,mask_img/000000026782.png,experiment,q,q,395.8426038000034
V3,28,23,Female,Right,70,Block 1,0.7186861999798566,0.1,true,building,building,occlusion,high,mask,partial viewing,few large,Stimulus\all_stim\occlusion\partialviewing\fewlarge\high\fewlarge_partialViewing_high_building9.png,mask_img/000000015619.png,experiment,r,r,397.492558500031
V3,28,23,Female,Right,71,Block 1,2.218073899974115,0.025,true,bird,bird,occlusion,high,mask,partial viewing,many small,Stimulus\all_stim\occlusion\partialviewing\manysmall\high\manysmall_partialViewing_high_bird1.png,mask_img/000000043966.png,experiment,e,e,400.83436690003145
V3,28,23,Female,Right,72,Block 1,0.5758103999542072,0.1,true,cat,cat,occlusion,control,mask,partial viewing,many small,Stimulus\all_stim\occlusion\partialviewing\manysmall\control\manysmall_partialViewing_control_cat4.png,mask_img/000000038479.png,experiment,i,i,402.204146000091
V3,28,23,Female,Right,73,Block 1,2.5611658999696374,0.1,false,person,tree,occlusion,low,mask,partial viewing,many small,Stimulus\all_stim\occlusion\partialviewing\manysmall\low\manysmall_partialViewing_low_person9.png,mask_img/000000062427.png,experiment,u,o,405.674640799989
V3,28,23,Female,Right,74,Block 1,0.9265297000529245,0.1,false,bird,tree,occlusion,high,mask,partial viewing,many small,Stimulus\all_stim\occlusion\partialviewing\manysmall\high\manysmall_partialViewing_high_bird2.png,mask_img/000000044117.png,experiment,u,e,407.64245460007805
V3,28,23,Female,Right,75,Block 1,0.8436899000080302,0.1,true,bird,bird,occlusion,low,mask,partial viewing,few large,Stimulus\all_stim\occlusion\partialviewing\fewlarge\low\fewlarge_partialViewing_low_bird5.png,mask_img/000000024239.png,experiment,e,e,409.3784697999945
V3,28,23,Female,Right,76,Block 1,2.1603355000261217,0.05,false,cat,building,occlusion,high,mask,partial viewing,many small,Stimulus\all_stim\occlusion\partialviewing\manysmall\high\manysmall_partialViewing_high_cat5.png,mask_img/000000049428.png,experiment,r,i,412.5227389000356
V3,28,23,Female,Right,77,Block 1,0.646591299911961,0.05,true,building,building,occlusion,high,mask,partial viewing,many small,Stimulus\all_stim\occlusion\partialviewing\manysmall\high\manysmall_partialViewing_high_building1.png,mask_img/000000044950.png,experiment,r,r,414.010283300071
V3,28,23,Female,Right,78,Block 1,1.1320751999737695,0.025,false,firehydrant,person,occlusion,high,mask,partial viewing,few large,Stimulus\all_stim\occlusion\partialviewing\fewlarge\high\fewlarge_partialViewing_high_firehydrant1.png,mask_img/000000017944.png,experiment,o,p,415.9066110000713
V3,28,23,Female,Right,79,Block 1,0.9143247000174597,0.025,true,bus,bus,occlusion,control,mask,partial viewing,many small,Stimulus\all_stim\occlusion\partialviewing\manysmall\control\manysmall_partialViewing_control_bus6.png,mask_img/000000037174.png,experiment,q,q,417.76248110004235
V3,28,23,Female,Right,80,Block 1,1.1692898999899626,0.1,true,firehydrant,firehydrant,occlusion,high,mask,partial viewing,many small,Stimulus\all_stim\occlusion\partialviewing\manysmall\high\manysmall_partialViewing_high_firehydrant7.png,mask_img/000000050790.png,experiment,p,p,419.8684454000322
V3,28,23,Female,Right,81,Block 1,0.6739280000329018,0.05,true,bus,bus,occlusion,control,mask,partial viewing,few large,Stimulus\all_stim\occlusion\partialviewing\fewlarge\control\fewlarge_partialViewing_control_bus9.png,mask_img/000000006263.png,experiment,q,q,421.29846970003564
V3,28,23,Female,Right,82,Block 1,0.9352168999612331,0.05,true,bird,bird,occlusion,high,mask,partial viewing,many small,Stimulus\all_stim\occlusion\partialviewing\manysmall\high\manysmall_partialViewing_high_bird3.png,mask_img/000000044123.png,experiment,e,e,423.33859450009186
V3,28,23,Female,Right,83,Block 1,0.7588404999114573,0.1,true,cat,cat,occlusion,high,mask,partial viewing,few large,Stimulus\all_stim\occlusion\partialviewing\fewlarge\high\fewlarge_partialViewing_high_cat6.png,mask_img/000000017476.png,experiment,i,i,424.8745614000363
V3,28,23,Female,Right,84,Block 1,0.8588646000716835,0.025,true,building,building,occlusion,control,mask,partial viewing,few large,Stimulus\all_stim\occlusion\partialviewing\fewlarge\control\fewlarge_partialViewing_control_building9.png,mask_img/000000005131.png,experiment,r,r,426.85850810003467
V3,28,23,Female,Right,85,Block 1,0.7532276000129059,0.1,false,banana,bus,occlusion,high,mask,partial viewing,few large,Stimulus\all_stim\occlusion\partialviewing\fewlarge\high\fewlarge_partialViewing_high_banana6.png,mask_img/000000012548.png,experiment,q,w,428.67454550007824
V3,28,23,Female,Right,86,Block 1,1.5736010000109673,0.1,false,building,banana,occlusion,control,mask,partial viewing,few large,Stimulus\all_stim\occlusion\partialviewing\fewlarge\control\fewlarge_partialViewing_control_building9.png,mask_img/000000005131.png,experiment,w,r,431.1863772000652
V3,28,23,Female,Right,87,Block 1,1.9880448000039905,0.05,false,cat,person,occlusion,low,mask,partial viewing,many small,Stimulus\all_stim\occlusion\partialviewing\manysmall\low\manysmall_partialViewing_low_cat7.png,mask_img/000000060158.png,experiment,o,i,434.3306625999976
V3,28,23,Female,Right,88,Block 1,1.821986100054346,0.05,false,person,cat,occlusion,low,mask,partial viewing,few large,Stimulus\all_stim\occlusion\partialviewing\fewlarge\low\fewlarge_partialViewing_low_person4.png,mask_img/000000029730.png,experiment,i,o,437.21067990001757
V3,28,23,Female,Right,89,Block 1,1.4128397000022233,0.1,true,bus,bus,occlusion,low,mask,partial viewing,many small,Stimulus\all_stim\occlusion\partialviewing\manysmall\low\manysmall_partialViewing_low_bus10.png,mask_img/000000058595.png,experiment,q,q,439.4669236000627
V3,28,23,Female,Right,90,Block 1,1.2940617999993265,0.025,true,tree,tree,occlusion,low,mask,partial viewing,few large,Stimulus\all_stim\occlusion\partialviewing\fewlarge\low\fewlarge_partialViewing_low_tree10.png,mask_img/000000031454.png,experiment,u,u,441.7627082000254
V3,28,23,Female,Right,91,Block 1,0.5908087999559939,0.025,true,cat,cat,occlusion,control,mask,partial viewing,few large,Stimulus\all_stim\occlusion\partialviewing\fewlarge\control\fewlarge_partialViewing_control_cat1.png,mask_img/000000006437.png,experiment,i,i,443.3062244000612
V3,28,23,Female,Right,92,Block 1,0.9700752999633551,0.05,true,firehydrant,firehydrant,occlusion,low,mask,partial viewing,many small,Stimulus\all_stim\occlusion\partialviewing\manysmall\low\manysmall_partialViewing_low_firehydrant6.png,mask_img/000000060647.png,experiment,p,p,445.0266914999811
V3,28,23,Female,Right,93,Block 1,1.6626072999788448,0.1,true,banana,banana,occlusion,low,mask,partial viewing,many small,Stimulus\all_stim\occlusion\partialviewing\manysmall\low\manysmall_partialViewing_low_banana9.png,mask_img/000000055652.png,experiment,w,w,447.4346519000828
V3,28,23,Female,Right,94,Block 1,0.83540510002058,0.1,true,firehydrant,firehydrant,occlusion,low,mask,partial viewing,many small,Stimulus\all_stim\occlusion\partialviewing\manysmall\low\manysmall_partialViewing_low_firehydrant4.png,mask_img/000000060610.png,experiment,p,p,448.96225460001733
V3,28,23,Female,Right,95,Block 1,0.5910350999329239,0.1,true,banana,banana,occlusion,control,mask,partial viewing,few large,Stimulus\all_stim\occlusion\partialviewing\fewlarge\control\fewlarge_partialViewing_control_banana8.png,mask_img/000000000690.png,experiment,w,w,450.50666080007795
V3,28,23,Female,Right,96,Block 1,1.0264217000221834,0.1,true,person,person,occlusion,low,mask,partial viewing,few large,Stimulus\all_stim\occlusion\partialviewing\fewlarge\low\fewlarge_partialViewing_low_person3.png,mask_img/000000029506.png,experiment,o,o,452.5625799000263
V3,28,23,Female,Right,97,Block 1,1.1730735999299213,0.025,true,bus,bus,occlusion,control,mask,partial viewing,few large,Stimulus\all_stim\occlusion\partialviewing\fewlarge\control\fewlarge_partialViewing_control_bus2.png,mask_img/000000005359.png,experiment,q,q,454.6907212000806
V3,28,23,Female,Right,98,Block 1,1.2404800000367686,0.05,true,bird,bird,occlusion,control,mask,partial viewing,many small,Stimulus\all_stim\occlusion\partialviewing\manysmall\control\manysmall_partialViewing_control_bird8.png,mask_img/000000035190.png,experiment,e,e,456.7063842000207
V3,28,23,Female,Right,99,Block 1,2.2147334000328556,0.05,true,cat,cat,occlusion,low,mask,partial viewing,many small,Stimulus\all_stim\occlusion\partialviewing\manysmall\low\manysmall_partialViewing_low_cat10.png,mask_img/000000059046.png,experiment,i,i,460.0264659000095
V3,28,23,Female,Right,100,Block 1,1.8791605000151321,0.025,true,building,building,occlusion,high,mask,partial viewing,few large,Stimulus\all_stim\occlusion\partialviewing\fewlarge\high\fewlarge_partialViewing_high_building10.png,mask_img/000000014428.png,experiment,r,r,462.7386698999908
V3,28,23,Female,Right,101,Block 1,0.6214153000619262,0.025,true,building,building,occlusion,control,mask,partial viewing,many small,Stimulus\all_stim\occlusion\partialviewing\manysmall\control\manysmall_partialViewing_control_building1.png,mask_img/000000035818.png,experiment,r,r,464.4106885000365
V3,28,23,Female,Right,102,Block 1,1.028929999913089,0.1,true,bird,bird,occlusion,control,mask,partial viewing,few large,Stimulus\all_stim\occlusion\partialviewing\fewlarge\control\fewlarge_partialViewing_control_bird3.png,mask_img/000000001810.png,experiment,e,e,466.5785548000131
V3,28,23,Female,Right,103,Block 1,0.9619642000179738,0.1,true,cat,cat,occlusion,low,mask,partial viewing,few large,Stimulus\all_stim\occlusion\partialviewing\fewlarge\low\fewlarge_partialViewing_low_cat1.png,mask_img/000000027151.png,experiment,i,i,468.2984665000113
V3,28,23,Female,Right,104,Block 1,0.7600289999973029,0.05,false,banana,bird,occlusion,low,mask,partial viewing,many small,Stimulus\all_stim\occlusion\partialviewing\manysmall\low\manysmall_partialViewing_low_banana2.png,mask_img/000000054759.png,experiment,e,w,469.9144561000867
V3,28,23,Female,Right,105,Block 1,2.547223999979906,0.1,true,tree,tree,occlusion,control,mask,partial viewing,few large,Stimulus\all_stim\occlusion\partialviewing\fewlarge\control\fewlarge_partialViewing_control_tree1.png,mask_img/000000010281.png,experiment,u,u,473.2347087999806
V3,28,23,Female,Right,106,Block 1,0.8795420000096783,0.05,false,cat,person,occlusion,low,mask,partial viewing,few large,Stimulus\all_stim\occlusion\partialviewing\fewlarge\low\fewlarge_partialViewing_low_cat2.png,mask_img/000000027371.png,experiment,o,i,475.0105340000009
V3,28,23,Female,Right,107,Block 1,1.1358684999868274,0.1,true,building,building,occlusion,low,mask,partial viewing,few large,Stimulus\all_stim\occlusion\partialviewing\fewlarge\low\fewlarge_partialViewing_low_building2.png,mask_img/000000024702.png,experiment,r,r,477.0904059000313
V3,28,23,Female,Right,108,Block 1,0.6163436999777332,0.05,false,person,firehydrant,occlusion,control,mask,partial viewing,few large,Stimulus\all_stim\occlusion\partialviewing\fewlarge\control\fewlarge_partialViewing_control_person1.png,mask_img/000000008341.png,experiment,p,o,478.46737710002344
V3,28,23,Female,Right,109,Block 1,1.796328300028108,0.05,true,person,person,occlusion,control,mask,partial viewing,many small,Stimulus\all_stim\occlusion\partialviewing\manysmall\control\manysmall_partialViewing_control_person4.png,mask_img/000000040042.png,experiment,o,o,481.2826321000466
V3,28,23,Female,Right,110,Block 1,0.7774857999756932,0.1,true,bus,bus,occlusion,low,mask,partial viewing,many small,Stimulus\all_stim\occlusion\partialviewing\manysmall\low\manysmall_partialViewing_low_bus6.png,mask_img/000000058815.png,experiment,q,q,483.2345385000808
V3,28,23,Female,Right,111,Block 1,0.8565473000053316,0.1,false,bird,person,occlusion,high,mask,partial viewing,many small,Stimulus\all_stim\occlusion\partialviewing\manysmall\high\manysmall_partialViewing_high_bird8.png,mask_img/000000044831.png,experiment,o,e,484.9226012000581
V3,28,23,Female,Right,112,Block 1,2.0290850000455976,0.1,true,bird,bird,occlusion,control,mask,partial viewing,few large,Stimulus\all_stim\occlusion\partialviewing\fewlarge\control\fewlarge_partialViewing_control_bird6.png,mask_img/000000002337.png,experiment,e,e,487.7784103000304
V3,28,23,Female,Right,113,Block 1,0.9735265000490472,0.1,true,banana,banana,occlusion,high,mask,partial viewing,few large,Stimulus\all_stim\occlusion\partialviewing\fewlarge\high\fewlarge_partialViewing_high_banana9.png,mask_img/000000012999.png,experiment,w,w,489.77856870007236
V3,28,23,Female,Right,114,Block 1,0.8262939000269398,0.05,true,person,person,occlusion,low,mask,partial viewing,many small,Stimulus\all_stim\occlusion\partialviewing\manysmall\low\manysmall_partialViewing_low_person1.png,mask_img/000000061780.png,experiment,o,o,491.66668430005666
V3,28,23,Female,Right,115,Block 1,0.6238284000428393,0.1,true,person,person,occlusion,low,mask,partial viewing,few large,Stimulus\all_stim\occlusion\partialviewing\fewlarge\low\fewlarge_partialViewing_low_person8.png,mask_img/000000030611.png,experiment,o,o,493.2207647000905
V3,28,23,Female,Right,116,Block 1,0.8243912999751046,0.05,true,bus,bus,occlusion,low,mask,partial viewing,few large,Stimulus\all_stim\occlusion\partialviewing\fewlarge\low\fewlarge_partialViewing_low_bus10.png,mask_img/000000025855.png,experiment,q,q,494.7625620000763
V3,28,23,Female,Right,117,Block 1,2.2678539999760687,0.1,false,cat,bird,occlusion,low,mask,partial viewing,many small,Stimulus\all_stim\occlusion\partialviewing\manysmall\low\manysmall_partialViewing_low_cat5.png,mask_img/000000059660.png,experiment,e,i,498.05064250004943
V3,28,23,Female,Right,118,Block 1,0.6526315999217331,0.1,true,banana,banana,occlusion,control,mask,partial viewing,few large,Stimulus\all_stim\occlusion\partialviewing\fewlarge\control\fewlarge_partialViewing_control_banana6.png,mask_img/000000000595.png,experiment,w,w,499.8069770000875
V3,28,23,Female,Right,119,Block 1,0.8919117000186816,0.025,true,building,building,occlusion,low,mask,partial viewing,few large,Stimulus\all_stim\occlusion\partialviewing\fewlarge\low\fewlarge_partialViewing_low_building3.png,mask_img/000000024808.png,experiment,r,r,501.7543058000738
V3,28,23,Female,Right,120,Block 1,1.2329991000005975,0.025,false,banana,person,occlusion,high,mask,partial viewing,many small,Stimulus\all_stim\occlusion\partialviewing\manysmall\high\manysmall_partialViewing_high_banana4.png,mask_img/000000042499.png,experiment,o,w,503.9708283999935
V3,28,23,Female,Right,121,Block 1,0.696405699942261,0.1,true,bus,bus,occlusion,control,mask,partial viewing,few large,Stimulus\all_stim\occlusion\partialviewing\fewlarge\control\fewlarge_partialViewing_control_bus9.png,mask_img/000000006263.png,experiment,q,q,505.59452709998004
V3,28,23,Female,Right,122,Block 1,2.1196796000003815,0.1,true,person,person,occlusion,control,mask,partial viewing,many small,Stimulus\all_stim\occlusion\partialviewing\manysmall\control\manysmall_partialViewing_control_person6.png,mask_img/000000040325.png,experiment,o,o,508.79475070000626
V3,28,23,Female,Right,123,Block 1,0.9777172000613064,0.1,true,banana,banana,occlusion,low,mask,partial viewing,many small,Stimulus\all_stim\occlusion\partialviewing\manysmall\low\manysmall_partialViewing_low_banana8.png,mask_img/000000055630.png,experiment,w,w,510.79467289999593
V3,28,23,Female,Right,124,Block 1,0.7830789999570698,0.05,true,bus,bus,occlusion,high,mask,partial viewing,few large,Stimulus\all_stim\occlusion\partialviewing\fewlarge\high\fewlarge_partialViewing_high_bus4.png,mask_img/000000015927.png,experiment,q,q,512.7384722999996
V3,28,23,Female,Right,125,Block 1,0.8330651000142097,0.1,true,person,person,occlusion,control,mask,partial viewing,few large,Stimulus\all_stim\occlusion\partialviewing\fewlarge\control\fewlarge_partialViewing_control_person9.png,mask_img/000000009809.png,experiment,o,o,514.306533700088
V3,28,23,Female,Right,126,Block 1,1.553989899926819,0.05,true,bird,bird,occlusion,low,mask,partial viewing,few large,Stimulus\all_stim\occlusion\partialviewing\fewlarge\low\fewlarge_partialViewing_low_bird5.png,mask_img/000000024239.png,experiment,e,e,516.7786133000627
V3,28,23,Female,Right,127,Block 1,0.9317422999301925,0.05,false,tree,bird,occlusion,high,mask,partial viewing,few large,Stimulus\all_stim\occlusion\partialviewing\fewlarge\high\fewlarge_partialViewing_high_tree9.png,mask_img/000000022440.png,experiment,e,u,518.5306716000196
V3,28,23,Female,Right,128,Block 1,0.5944358000997454,0.1,true,person,person,occlusion,high,mask,partial viewing,few large,Stimulus\all_stim\occlusion\partialviewing\fewlarge\high\fewlarge_partialViewing_high_person1.png,mask_img/000000019759.png,experiment,o,o,520.0492053000489
V3,28,23,Female,Right,129,Block 1,0.7878144000424072,0.025,true,tree,tree,occlusion,control,mask,partial viewing,many small,Stimulus\all_stim\occlusion\partialviewing\manysmall\control\manysmall_partialViewing_control_tree1.png,mask_img/000000040886.png,experiment,u,u,521.6422274999786
V3,28,23,Female,Right,130,Block 1,1.9893168999115005,0.1,true,firehydrant,firehydrant,occlusion,control,mask,partial viewing,few large,Stimulus\all_stim\occlusion\partialviewing\fewlarge\control\fewlarge_partialViewing_control_firehydrant4.png,mask_img/000000007952.png,experiment,p,p,524.4267659999896
V3,28,23,Female,Right,131,Block 1,1.2487326000118628,0.05,true,person,person,occlusion,high,mask,partial viewing,few large,Stimulus\all_stim\occlusion\partialviewing\fewlarge\high\fewlarge_partialViewing_high_person3.png,mask_img/000000020147.png,experiment,o,o,526.6345589000266
V3,28,23,Female,Right,132,Block 1,1.2482039999449626,0.025,false,tree,bird,occlusion,high,mask,partial viewing,few large,Stimulus\all_stim\occlusion\partialviewing\fewlarge\high\fewlarge_partialViewing_high_tree4.png,mask_img/000000021981.png,experiment,e,u,528.6745493999915
V3,28,23,Female,Right,133,Block 1,0.754449600004591,0.05,true,bus,bus,occlusion,low,mask,partial viewing,few large,Stimulus\all_stim\occlusion\partialviewing\fewlarge\low\fewlarge_partialViewing_low_bus8.png,mask_img/000000026782.png,experiment,q,q,530.2588540000143
V3,28,23,Female,Right,134,Block 1,1.5581904998980463,0.05,false,bus,building,occlusion,high,mask,partial viewing,few large,Stimulus\all_stim\occlusion\partialviewing\fewlarge\high\fewlarge_partialViewing_high_bus3.png,mask_img/000000015908.png,experiment,r,q,532.6665902000386
V3,28,23,Female,Right,135,Block 1,0.890183600015007,0.1,true,bird,bird,occlusion,control,mask,partial viewing,few large,Stimulus\all_stim\occlusion\partialviewing\fewlarge\control\fewlarge_partialViewing_control_bird8.png,mask_img/000000002822.png,experiment,e,e,534.3793483000482
V3,28,23,Female,Right,136,Block 1,0.9737465000944212,0.05,true,bus,bus,occlusion,low,mask,partial viewing,many small,Stimulus\all_stim\occlusion\partialviewing\manysmall\low\manysmall_partialViewing_low_bus9.png,mask_img/000000058910.png,experiment,q,q,536.282658000011
V3,28,23,Female,Right,137,Block 1,0.9584315000101924,0.025,true,bird,bird,occlusion,control,mask,partial viewing,many small,Stimulus\all_stim\occlusion\partialviewing\manysmall\control\manysmall_partialViewing_control_bird1.png,mask_img/000000034113.png,experiment,e,e,538.0985491999891
V3,28,23,Female,Right,138,Block 1,0.901457899948582,0.05,true,person,person,occlusion,low,mask,partial viewing,many small,Stimulus\all_stim\occlusion\partialviewing\manysmall\low\manysmall_partialViewing_low_person4.png,mask_img/000000062131.png,experiment,o,o,539.842305200058
V3,28,23,Female,Right,139,Block 1,0.8669629999203607,0.025,true,bird,bird,occlusion,high,mask,partial viewing,few large,Stimulus\all_stim\occlusion\partialviewing\fewlarge\high\fewlarge_partialViewing_high_bird7.png,mask_img/000000013949.png,experiment,e,e,541.8345701000653
V3,28,23,Female,Right,140,Block 1,1.4369365000166,0.1,false,building,bus,occlusion,low,mask,partial viewing,few large,Stimulus\all_stim\occlusion\partialviewing\fewlarge\low\fewlarge_partialViewing_low_building3.png,mask_img/000000024808.png,experiment,q,r,543.9943901000079
V3,28,23,Female,Right,141,Block 1,0.8791104999836534,0.1,true,tree,tree,occlusion,control,mask,partial viewing,few large,Stimulus\all_stim\occlusion\partialviewing\fewlarge\control\fewlarge_partialViewing_control_tree8.png,mask_img/000000011544.png,experiment,u,u,545.8827419000445
V3,28,23,Female,Right,142,Block 1,0.6081317999633029,0.025,true,firehydrant,firehydrant,occlusion,control,mask,partial viewing,many small,Stimulus\all_stim\occlusion\partialviewing\manysmall\control\manysmall_partialViewing_control_firehydrant2.png,mask_img/000000039089.png,experiment,p,p,547.3464773000451
V3,28,23,Female,Right,143,Block 1,0.8360185000346974,0.1,true,bird,bird,occlusion,high,mask,partial viewing,few large,Stimulus\all_stim\occlusion\partialviewing\fewlarge\high\fewlarge_partialViewing_high_bird3.png,mask_img/000000013455.png,experiment,e,e,548.9385207000887
V3,28,23,Female,Right,144,Block 1,0.721530899987556,0.05,true,tree,tree,occlusion,control,mask,partial viewing,many small,Stimulus\all_stim\occlusion\partialviewing\manysmall\control\manysmall_partialViewing_control_tree7.png,mask_img/000000041434.png,experiment,u,u,567.8988124000607
V3,28,23,Female,Right,145,Block 2,2.5298714999808,0.025,true,building,building,occlusion,high,mask,partial viewing,many small,Stimulus\all_stim\occlusion\partialviewing\manysmall\high\manysmall_partialViewing_high_building8.png,mask_img/000000046245.png,experiment,r,r,571.1147644000594
V3,28,23,Female,Right,146,Block 2,0.8137204999802634,0.05,true,banana,banana,occlusion,control,mask,partial viewing,few large,Stimulus\all_stim\occlusion\partialviewing\fewlarge\control\fewlarge_partialViewing_control_banana10.png,mask_img/000000000109.png,experiment,w,w,572.7865095000016
V3,28,23,Female,Right,147,Block 2,2.5873310000170022,0.025,false,banana,building,occlusion,high,mask,partial viewing,few large,Stimulus\all_stim\occlusion\partialviewing\fewlarge\high\fewlarge_partialViewing_high_banana7.png,mask_img/000000012567.png,experiment,r,w,576.3626688000513
V3,28,23,Female,Right,148,Block 2,0.6823045000201091,0.1,true,bus,bus,occlusion,high,mask,partial viewing,few large,Stimulus\all_stim\occlusion\partialviewing\fewlarge\high\fewlarge_partialViewing_high_bus4.png,mask_img/000000015927.png,experiment,q,q,577.9063141000224
V3,28,23,Female,Right,149,Block 2,0.7498120999662206,0.025,true,person,person,occlusion,control,mask,partial viewing,many small,Stimulus\all_stim\occlusion\partialviewing\manysmall\control\manysmall_partialViewing_control_person9.png,mask_img/000000040771.png,experiment,o,o,579.7866448999848
V3,28,23,Female,Right,150,Block 2,1.5640578999882564,0.1,true,cat,cat,occlusion,control,mask,partial viewing,many small,Stimulus\all_stim\occlusion\partialviewing\manysmall\control\manysmall_partialViewing_control_cat6.png,mask_img/000000038753.png,experiment,i,i,582.5226355000632
V3,28,23,Female,Right,151,Block 2,0.7249527999665588,0.05,false,bird,tree,occlusion,low,mask,partial viewing,few large,Stimulus\all_stim\occlusion\partialviewing\fewlarge\low\fewlarge_partialViewing_low_bird1.png,mask_img/000000023984.png,experiment,u,e,584.3382332000183
V3,28,23,Female,Right,152,Block 2,0.7272128999466076,0.1,true,building,building,occlusion,control,mask,partial viewing,many small,Stimulus\all_stim\occlusion\partialviewing\manysmall\control\manysmall_partialViewing_control_building8.png,mask_img/000000036091.png,experiment,r,r,585.9866569000296
V3,28,23,Female,Right,153,Block 2,1.1350014000199735,0.025,true,bus,bus,occlusion,high,mask,partial viewing,few large,Stimulus\all_stim\occlusion\partialviewing\fewlarge\high\fewlarge_partialViewing_high_bus1.png,mask_img/000000015645.png,experiment,q,q,588.037415000028
V3,28,23,Female,Right,154,Block 2,0.616456100018695,0.025,true,building,building,occlusion,low,mask,partial viewing,few large,Stimulus\all_stim\occlusion\partialviewing\fewlarge\low\fewlarge_partialViewing_low_building6.png,mask_img/000000025143.png,experiment,r,r,589.8025617999956
V3,28,23,Female,Right,155,Block 2,0.8539496000157669,0.025,false,cat,person,occlusion,low,mask,partial viewing,few large,Stimulus\all_stim\occlusion\partialviewing\fewlarge\low\fewlarge_partialViewing_low_cat7.png,mask_img/000000027890.png,experiment,o,i,591.5466261000838
V3,28,23,Female,Right,156,Block 2,0.604679899988696,0.05,true,bus,bus,occlusion,high,mask,partial viewing,few large,Stimulus\all_stim\occlusion\partialviewing\fewlarge\high\fewlarge_partialViewing_high_bus5.png,mask_img/000000015986.png,experiment,q,q,593.2577759000706
V3,28,23,Female,Right,157,Block 2,1.0861522000050172,0.05,true,banana,banana,occlusion,low,mask,partial viewing,many small,Stimulus\all_stim\occlusion\partialviewing\manysmall\low\manysmall_partialViewing_low_banana8.png,mask_img/000000055630.png,experiment,w,w,595.4665574000683
V3,28,23,Female,Right,158,Block 2,1.6123145000310615,0.1,false,banana,cat,occlusion,high,mask,partial viewing,many small,Stimulus\all_stim\occlusion\partialviewing\manysmall\high\manysmall_partialViewing_high_banana4.png,mask_img/000000042499.png,experiment,i,w,598.010732499999
V3,28,23,Female,Right,159,Block 2,1.0073063999880105,0.1,true,bird,bird,occlusion,control,mask,partial viewing,many small,Stimulus\all_stim\occlusion\partialviewing\manysmall\control\manysmall_partialViewing_control_bird1.png,mask_img/000000034113.png,experiment,e,e,599.796865100041
V3,28,23,Female,Right,160,Block 2,1.1081600000616163,0.05,true,banana,banana,occlusion,low,mask,partial viewing,many small,Stimulus\all_stim\occlusion\partialviewing\manysmall\low\manysmall_partialViewing_low_banana6.png,mask_img/000000055460.png,experiment,w,w,601.6183723000577
V3,28,23,Female,Right,161,Block 2,1.0593118000542745,0.05,false,firehydrant,person,occlusion,high,mask,partial viewing,few large,Stimulus\all_stim\occlusion\partialviewing\fewlarge\high\fewlarge_partialViewing_high_firehydrant4.png,mask_img/000000018882.png,experiment,o,p,603.6505614999915
V3,28,23,Female,Right,162,Block 2,0.7950121000176296,0.05,true,cat,cat,occlusion,high,mask,partial viewing,few large,Stimulus\all_stim\occlusion\partialviewing\fewlarge\high\fewlarge_partialViewing_high_cat4.png,mask_img/000000017364.png,experiment,i,i,605.5463383999886
V3,28,23,Female,Right,163,Block 2,0.6540621999884024,0.025,false,bird,banana,occlusion,low,mask,partial viewing,few large,Stimulus\all_stim\occlusion\partialviewing\fewlarge\low\fewlarge_partialViewing_low_bird2.png,mask_img/000000024125.png,experiment,w,e,607.1384322000667
V3,28,23,Female,Right,164,Block 2,1.729102800018154,0.025,false,bird,bus,occlusion,high,mask,partial viewing,few large,Stimulus\all_stim\occlusion\partialviewing\fewlarge\high\fewlarge_partialViewing_high_bird4.png,mask_img/000000013721.png,experiment,q,e,609.9707692000084
V3,28,23,Female,Right,165,Block 2,1.5090844000224024,0.025,true,banana,banana,occlusion,low,mask,partial viewing,many small,Stimulus\all_stim\occlusion\partialviewing\manysmall\low\manysmall_partialViewing_low_banana1.png,mask_img/000000054532.png,experiment,w,w,612.5064774000784
V3,28,23,Female,Right,166,Block 2,1.34812179999426,0.1,true,firehydrant,firehydrant,occlusion,low,mask,partial viewing,many small,Stimulus\all_stim\occlusion\partialviewing\manysmall\low\manysmall_partialViewing_low_firehydrant5.png,mask_img/000000060623.png,experiment,p,p,614.788423400023
V3,28,23,Female,Right,167,Block 2,0.8491687999339774,0.025,true,bus,bus,occlusion,low,mask,partial viewing,few large,Stimulus\all_stim\occlusion\partialviewing\fewlarge\low\fewlarge_partialViewing_low_bus3.png,mask_img/000000025997.png,experiment,q,q,616.6344701000489
V3,28,23,Female,Right,168,Block 2,0.9882487000431865,0.05,true,firehydrant,firehydrant,occlusion,high,mask,partial viewing,many small,Stimulus\all_stim\occlusion\partialviewing\manysmall\high\manysmall_partialViewing_high_firehydrant5.png,mask_img/000000050496.png,experiment,p,p,618.4422923000529
V3,28,23,Female,Right,169,Block 2,0.8007119999965653,0.05,true,tree,tree,occlusion,control,mask,partial viewing,few large,Stimulus\all_stim\occlusion\partialviewing\fewlarge\control\fewlarge_partialViewing_control_tree1.png,mask_img/000000010281.png,experiment,u,u,620.1147470000433
V3,28,23,Female,Right,170,Block 2,0.7558909000363201,0.05,true,building,building,occlusion,control,mask,partial viewing,many small,Stimulus\all_stim\occlusion\partialviewing\manysmall\control\manysmall_partialViewing_control_building2.png,mask_img/000000035864.png,experiment,r,r,621.9544399000006
V3,28,23,Female,Right,171,Block 2,1.0388227000366896,0.1,true,banana,banana,occlusion,low,mask,partial viewing,many small,Stimulus\all_stim\occlusion\partialviewing\manysmall\low\manysmall_partialViewing_low_banana6.png,mask_img/000000055460.png,experiment,w,w,624.0426941000624
V3,28,23,Female,Right,172,Block 2,2.674625299987383,0.1,true,banana,banana,occlusion,control,mask,partial viewing,few large,Stimulus\all_stim\occlusion\partialviewing\fewlarge\control\fewlarge_partialViewing_control_banana9.png,mask_img/000000000731.png,experiment,w,w,627.6035508000059
V3,28,23,Female,Right,173,Block 2,0.8406166000058874,0.1,true,bird,bird,occlusion,control,mask,partial viewing,few large,Stimulus\all_stim\occlusion\partialviewing\fewlarge\control\fewlarge_partialViewing_control_bird10.png,mask_img/000000001053.png,experiment,e,e,629.3224768000655
V3,28,23,Female,Right,174,Block 2,2.6756365000037476,0.05,true,cat,cat,occlusion,high,mask,partial viewing,few large,Stimulus\all_stim\occlusion\partialviewing\fewlarge\high\fewlarge_partialViewing_high_cat3.png,mask_img/000000017356.png,experiment,i,i,632.9325504000299
V3,28,23,Female,Right,175,Block 2,0.871561500011012,0.05,true,firehydrant,firehydrant,occlusion,low,mask,partial viewing,few large,Stimulus\all_stim\occlusion\partialviewing\fewlarge\low\fewlarge_partialViewing_low_firehydrant5.png,mask_img/000000028698.png,experiment,p,p,634.8105927000288
V3,28,23,Female,Right,176,Block 2,2.0088959999848157,0.025,false,cat,bird,occlusion,high,mask,partial viewing,many small,Stimulus\all_stim\occlusion\partialviewing\manysmall\high\manysmall_partialViewing_high_cat2.png,mask_img/000000049092.png,experiment,e,i,637.7625807999866
V3,28,23,Female,Right,177,Block 2,0.6889171999646351,0.05,true,tree,tree,occlusion,control,mask,partial viewing,many small,Stimulus\all_stim\occlusion\partialviewing\manysmall\control\manysmall_partialViewing_control_tree4.png,mask_img/000000041022.png,experiment,u,u,639.5466394000687
V3,28,23,Female,Right,178,Block 2,0.8118048999458551,0.1,true,tree,tree,occlusion,low,mask,partial viewing,few large,Stimulus\all_stim\occlusion\partialviewing\fewlarge\low\fewlarge_partialViewing_low_tree3.png,mask_img/000000031717.png,experiment,u,u,641.4265211999882
V3,28,23,Female,Right,179,Block 2,1.1060933999251574,0.1,false,bird,banana,occlusion,low,mask,partial viewing,few large,Stimulus\all_stim\occlusion\partialviewing\fewlarge\low\fewlarge_partialViewing_low_bird1.png,mask_img/000000023984.png,experiment,w,e,643.5626187000889
V3,28,23,Female,Right,180,Block 2,1.6750725000165403,0.1,true,banana,banana,occlusion,control,mask,partial viewing,many small,Stimulus\all_stim\occlusion\partialviewing\manysmall\control\manysmall_partialViewing_control_banana8.png,mask_img/000000033904.png,experiment,w,w,646.0746319000609
V3,28,23,Female,Right,181,Block 2,2.0344886999810115,0.1,true,banana,banana,occlusion,high,mask,partial viewing,few large,Stimulus\all_stim\occlusion\partialviewing\fewlarge\high\fewlarge_partialViewing_high_banana5.png,mask_img/000000012543.png,experiment,w,w,649.106922200066
V3,28,23,Female,Right,182,Block 2,0.6239850000711158,0.025,true,banana,banana,occlusion,control,mask,partial viewing,few large,Stimulus\all_stim\occlusion\partialviewing\fewlarge\control\fewlarge_partialViewing_control_banana5.png,mask_img/000000000459.png,experiment,w,w,650.5066231000237
V3,28,23,Female,Right,183,Block 2,1.4034190999809653,0.025,true,bird,bird,occlusion,control,mask,partial viewing,many small,Stimulus\all_stim\occlusion\partialviewing\manysmall\control\manysmall_partialViewing_control_bird8.png,mask_img/000000035190.png,experiment,e,e,652.6586072000209
V3,28,23,Female,Right,184,Block 2,1.0140708000399172,0.1,true,firehydrant,firehydrant,occlusion,low,mask,partial viewing,many small,Stimulus\all_stim\occlusion\partialviewing\manysmall\low\manysmall_partialViewing_low_firehydrant8.png,mask_img/000000061512.png,experiment,p,p,654.882474699989
V3,28,23,Female,Right,185,Block 2,1.8189117000438273,0.025,true,bus,bus,occlusion,high,mask,partial viewing,few large,Stimulus\all_stim\occlusion\partialviewing\fewlarge\high\fewlarge_partialViewing_high_bus8.png,mask_img/000000016715.png,experiment,q,q,657.7625033999793
V3,28,23,Female,Right,186,Block 2,0.6393371999729425,0.1,true,building,building,occlusion,high,mask,partial viewing,few large,Stimulus\all_stim\occlusion\partialviewing\fewlarge\high\fewlarge_partialViewing_high_building6.png,mask_img/000000014774.png,experiment,r,r,659.2000477000838
V3,28,23,Female,Right,187,Block 2,0.7834989000111818,0.05,true,bus,bus,occlusion,control,mask,partial viewing,many small,Stimulus\all_stim\occlusion\partialviewing\manysmall\control\manysmall_partialViewing_control_bus2.png,mask_img/000000036622.png,experiment,q,q,660.8104729000479
V3,28,23,Female,Right,188,Block 2,1.511425800039433,0.025,true,tree,tree,occlusion,high,mask,partial viewing,many small,Stimulus\all_stim\occlusion\partialviewing\manysmall\high\manysmall_partialViewing_high_tree8.png,mask_img/000000054334.png,experiment,u,u,663.2345927000279
V3,28,23,Female,Right,189,Block 2,0.8722576000727713,0.1,true,banana,banana,occlusion,low,mask,partial viewing,many small,Stimulus\all_stim\occlusion\partialviewing\manysmall\low\manysmall_partialViewing_low_banana2.png,mask_img/000000054759.png,experiment,w,w,665.0827481000451
V3,28,23,Female,Right,190,Block 2,1.6066930999513716,0.05,false,cat,person,occlusion,control,mask,partial viewing,few large,Stimulus\all_stim\occlusion\partialviewing\fewlarge\control\fewlarge_partialViewing_control_cat10.png,mask_img/000000006481.png,experiment,o,i,667.5624601000454
V3,28,23,Female,Right,191,Block 2,1.4385539999930188,0.05,true,bus,bus,occlusion,control,mask,partial viewing,few large,Stimulus\all_stim\occlusion\partialviewing\fewlarge\control\fewlarge_partialViewing_control_bus4.png,mask_img/000000005574.png,experiment,q,q,670.1542822000338
V3,28,23,Female,Right,192,Block 2,0.9088818000163883,0.1,true,bird,bird,occlusion,high,mask,partial viewing,few large,Stimulus\all_stim\occlusion\partialviewing\fewlarge\high\fewlarge_partialViewing_high_bird1.png,mask_img/000000013061.png,experiment,e,e,671.9384949000087
V3,28,23,Female,Right,193,Block 2,2.1241960000479594,0.1,false,cat,person,occlusion,control,mask,partial viewing,many small,Stimulus\all_stim\occlusion\partialviewing\manysmall\control\manysmall_partialViewing_control_cat9.png,mask_img/000000038862.png,experiment,o,i,675.0664614000125
V3,28,23,Female,Right,194,Block 2,2.464193499996327,0.025,false,person,tree,occlusion,control,mask,partial viewing,many small,Stimulus\all_stim\occlusion\partialviewing\manysmall\control\manysmall_partialViewing_control_person2.png,mask_img/000000039971.png,experiment,u,o,678.4345504000084
V3,28,23,Female,Right,195,Block 2,1.1379983000224456,0.05,false,banana,bird,occlusion,high,mask,partial viewing,many small,Stimulus\all_stim\occlusion\partialviewing\manysmall\high\manysmall_partialViewing_high_banana4.png,mask_img/000000042499.png,experiment,e,w,680.5145070999861
V3,28,23,Female,Right,196,Block 2,0.8657881999388337,0.1,true,cat,cat,occlusion,control,mask,partial viewing,few large,Stimulus\all_stim\occlusion\partialviewing\fewlarge\control\fewlarge_partialViewing_control_cat1.png,mask_img/000000006437.png,experiment,i,i,682.0664771000156
V3,28,23,Female,Right,197,Block 2,2.2468623999739066,0.05,false,person,tree,occlusion,control,mask,partial viewing,many small,Stimulus\all_stim\occlusion\partialviewing\manysmall\control\manysmall_partialViewing_control_person8.png,mask_img/000000040466.png,experiment,u,o,685.0592537000775
V3,28,23,Female,Right,198,Block 2,0.7346498999977484,0.05,true,bus,bus,occlusion,control,mask,partial viewing,few large,Stimulus\all_stim\occlusion\partialviewing\fewlarge\control\fewlarge_partialViewing_control_bus8.png,mask_img/000000006153.png,experiment,q,q,686.6342714000493
V3,28,23,Female,Right,199,Block 2,0.7348888000706211,0.1,true,cat,cat,occlusion,high,mask,partial viewing,few large,Stimulus\all_stim\occlusion\partialviewing\fewlarge\high\fewlarge_partialViewing_high_cat7.png,mask_img/000000017580.png,experiment,i,i,688.2426611999981
V3,28,23,Female,Right,200,Block 2,0.8827066000085324,0.05,true,building,building,occlusion,high,mask,partial viewing,few large,Stimulus\all_stim\occlusion\partialviewing\fewlarge\high\fewlarge_partialViewing_high_building2.png,mask_img/000000014472.png,experiment,r,r,690.2825971000129
V3,28,23,Female,Right,201,Block 2,1.308337099966593,0.025,false,bus,building,occlusion,low,mask,partial viewing,many small,Stimulus\all_stim\occlusion\partialviewing\manysmall\low\manysmall_partialViewing_low_bus5.png,mask_img/000000058801.png,experiment,r,q,692.6589074999793
V3,28,23,Female,Right,202,Block 2,0.7891706000082195,0.05,true,cat,cat,occlusion,control,mask,partial viewing,many small,Stimulus\all_stim\occlusion\partialviewing\manysmall\control\manysmall_partialViewing_control_cat2.png,mask_img/000000038375.png,experiment,i,i,694.3787093000719
V3,28,23,Female,Right,203,Block 2,1.063702099956572,0.05,true,bus,bus,occlusion,control,mask,partial viewing,few large,Stimulus\all_stim\occlusion\partialviewing\fewlarge\control\fewlarge_partialViewing_control_bus6.png,mask_img/000000005862.png,experiment,q,q,696.5627361000516
V3,28,23,Female,Right,204,Block 2,1.4420257000019774,0.1,true,firehydrant,firehydrant,occlusion,low,mask,partial viewing,many small,Stimulus\all_stim\occlusion\partialviewing\manysmall\low\manysmall_partialViewing_low_firehydrant7.png,mask_img/000000061084.png,experiment,p,p,698.9066838000435
V3,28,23,Female,Right,205,Block 2,1.3066141000017524,0.1,false,person,cat,occlusion,high,mask,partial viewing,many small,Stimulus\all_stim\occlusion\partialviewing\manysmall\high\manysmall_partialViewing_high_person4.png,mask_img/000000052087.png,experiment,i,o,701.2925841000397
V3,28,23,Female,Right,206,Block 2,0.6327813999960199,0.025,true,firehydrant,firehydrant,occlusion,low,mask,partial viewing,few large,Stimulus\all_stim\occlusion\partialviewing\fewlarge\low\fewlarge_partialViewing_low_firehydrant9.png,mask_img/000000029056.png,experiment,p,p,702.8665420000907
V3,28,23,Female,Right,207,Block 2,0.8071193000068888,0.025,true,cat,cat,occlusion,low,mask,partial viewing,many small,Stimulus\all_stim\occlusion\partialviewing\manysmall\low\manysmall_partialViewing_low_cat10.png,mask_img/000000059046.png,experiment,i,i,704.4664397999877
V3,28,23,Female,Right,208,Block 2,1.0116190999979153,0.025,true,person,person,occlusion,low,mask,partial viewing,many small,Stimulus\all_stim\occlusion\partialviewing\manysmall\low\manysmall_partialViewing_low_person9.png,mask_img/000000062427.png,experiment,o,o,706.4426682000048
V3,28,23,Female,Right,209,Block 2,0.8515236999373883,0.05,true,bird,bird,occlusion,control,mask,partial viewing,few large,Stimulus\all_stim\occlusion\partialviewing\fewlarge\control\fewlarge_partialViewing_control_bird6.png,mask_img/000000002337.png,experiment,e,e,708.0043354000663
V3,28,23,Female,Right,210,Block 2,0.6526760999113321,0.1,false,bird,cat,occlusion,control,mask,partial viewing,many small,Stimulus\all_stim\occlusion\partialviewing\manysmall\control\manysmall_partialViewing_control_bird3.png,mask_img/000000034570.png,experiment,i,e,709.7840300999815
V3,28,23,Female,Right,211,Block 2,1.6748121000127867,0.025,false,bus,bird,occlusion,low,mask,partial viewing,few large,Stimulus\all_stim\occlusion\partialviewing\fewlarge\low\fewlarge_partialViewing_low_bus2.png,mask_img/000000025858.png,experiment,e,q,712.1469655000838
V3,28,23,Female,Right,212,Block 2,1.5816268000053242,0.025,false,banana,building,occlusion,low,mask,partial viewing,many small,Stimulus\all_stim\occlusion\partialviewing\manysmall\low\manysmall_partialViewing_low_banana9.png,mask_img/000000055652.png,experiment,r,w,714.5562682000455
V3,28,23,Female,Right,213,Block 2,0.933074599946849,0.05,true,firehydrant,firehydrant,occlusion,high,mask,partial viewing,many small,Stimulus\all_stim\occlusion\partialviewing\manysmall\high\manysmall_partialViewing_high_firehydrant7.png,mask_img/000000050790.png,experiment,p,p,716.1624721999979
V3,28,23,Female,Right,214,Block 2,1.100024100043811,0.1,true,banana,banana,occlusion,control,mask,partial viewing,many small,Stimulus\all_stim\occlusion\partialviewing\manysmall\control\manysmall_partialViewing_control_banana7.png,mask_img/000000033861.png,experiment,w,w,718.3946417000843
V3,28,23,Female,Right,215,Block 2,0.7660305999452248,0.05,true,bus,bus,occlusion,low,mask,partial viewing,many small,Stimulus\all_stim\occlusion\partialviewing\manysmall\low\manysmall_partialViewing_low_bus6.png,mask_img/000000058815.png,experiment,q,q,719.9304330000887
V3,28,23,Female,Right,216,Block 2,0.7815002000425011,0.1,true,tree,tree,occlusion,control,mask,partial viewing,many small,Stimulus\all_stim\occlusion\partialviewing\manysmall\control\manysmall_partialViewing_control_tree3.png,mask_img/000000041014.png,experiment,u,u,721.778567600064
V3,28,23,Female,Right,217,Block 2,0.7718193000182509,0.05,true,banana,banana,occlusion,control,mask,partial viewing,many small,Stimulus\all_stim\occlusion\partialviewing\manysmall\control\manysmall_partialViewing_control_banana7.png,mask_img/000000033861.png,experiment,w,w,723.2424672000343
V3,28,23,Female,Right,218,Block 2,1.113808499998413,0.05,true,person,person,occlusion,high,mask,partial viewing,many small,Stimulus\all_stim\occlusion\partialviewing\manysmall\high\manysmall_partialViewing_high_person4.png,mask_img/000000052087.png,experiment,o,o,725.2120259000221
V3,28,23,Female,Right,219,Block 2,0.6911542000016198,0.025,true,banana,banana,occlusion,low,mask,partial viewing,few large,Stimulus\all_stim\occlusion\partialviewing\fewlarge\low\fewlarge_partialViewing_low_banana4.png,mask_img/000000023015.png,experiment,w,w,726.9305465000216
V3,28,23,Female,Right,220,Block 2,1.3601722000166774,0.025,true,firehydrant,firehydrant,occlusion,low,mask,partial viewing,few large,Stimulus\all_stim\occlusion\partialviewing\fewlarge\low\fewlarge_partialViewing_low_firehydrant10.png,mask_img/000000028367.png,experiment,p,p,729.2826218000846
V3,28,23,Female,Right,221,Block 2,1.2196357999928296,0.05,true,cat,cat,occlusion,low,mask,partial viewing,few large,Stimulus\all_stim\occlusion\partialviewing\fewlarge\low\fewlarge_partialViewing_low_cat5.png,mask_img/000000027704.png,experiment,i,i,731.5304876000155
V3,28,23,Female,Right,222,Block 2,1.3787404000759125,0.05,true,bus,bus,occlusion,low,mask,partial viewing,many small,Stimulus\all_stim\occlusion\partialviewing\manysmall\low\manysmall_partialViewing_low_bus1.png,mask_img/000000058232.png,experiment,q,q,733.6184782000491
V3,28,23,Female,Right,223,Block 2,1.7875707000494003,0.025,true,tree,tree,occlusion,low,mask,partial viewing,few large,Stimulus\all_stim\occlusion\partialviewing\fewlarge\low\fewlarge_partialViewing_low_tree3.png,mask_img/000000031717.png,experiment,u,u,736.0907054999843
V3,28,23,Female,Right,224,Block 2,0.8640568000264466,0.025,true,building,building,occlusion,control,mask,partial viewing,few large,Stimulus\all_stim\occlusion\partialviewing\fewlarge\control\fewlarge_partialViewing_control_building10.png,mask_img/000000003225.png,experiment,r,r,737.7626425999915
V3,28,23,Female,Right,225,Block 2,0.7266172000672668,0.1,true,bus,bus,occlusion,high,mask,partial viewing,few large,Stimulus\all_stim\occlusion\partialviewing\fewlarge\high\fewlarge_partialViewing_high_bus6.png,mask_img/000000015987.png,experiment,q,q,739.5546902000206
V3,28,23,Female,Right,226,Block 2,0.8378716000588611,0.05,true,firehydrant,firehydrant,occlusion,high,mask,partial viewing,few large,Stimulus\all_stim\occlusion\partialviewing\fewlarge\high\fewlarge_partialViewing_high_firehydrant8.png,mask_img/000000019528.png,experiment,p,p,741.4596035000868
V3,28,23,Female,Right,227,Block 2,1.5603156000142917,0.1,false,cat,person,occlusion,high,mask,partial viewing,many small,Stimulus\all_stim\occlusion\partialviewing\manysmall\high\manysmall_partialViewing_high_cat4.png,mask_img/000000049331.png,experiment,o,i,744.1225180000765
V3,28,23,Female,Right,228,Block 2,0.915516100008972,0.025,true,firehydrant,firehydrant,occlusion,low,mask,partial viewing,many small,Stimulus\all_stim\occlusion\partialviewing\manysmall\low\manysmall_partialViewing_low_firehydrant5.png,mask_img/000000060623.png,experiment,p,p,746.1071516000666
V3,28,23,Female,Right,229,Block 2,1.2960271999472752,0.1,true,bus,bus,occlusion,low,mask,partial viewing,few large,Stimulus\all_stim\occlusion\partialviewing\fewlarge\low\fewlarge_partialViewing_low_bus2.png,mask_img/000000025858.png,experiment,q,q,748.1227513999911
V3,28,23,Female,Right,230,Block 2,0.797739899950102,0.1,true,banana,banana,occlusion,high,mask,partial viewing,few large,Stimulus\all_stim\occlusion\partialviewing\fewlarge\high\fewlarge_partialViewing_high_banana4.png,mask_img/000000012377.png,experiment,w,w,749.6105409000302
V3,28,23,Female,Right,231,Block 2,0.7318751000566408,0.05,true,bus,bus,occlusion,low,mask,partial viewing,many small,Stimulus\all_stim\occlusion\partialviewing\manysmall\low\manysmall_partialViewing_low_bus3.png,mask_img/000000058647.png,experiment,q,q,751.4667301999871
V3,28,23,Female,Right,232,Block 2,0.7241524000419304,0.025,true,tree,tree,occlusion,control,mask,partial viewing,few large,Stimulus\all_stim\occlusion\partialviewing\fewlarge\control\fewlarge_partialViewing_control_tree5.png,mask_img/000000010991.png,experiment,u,u,753.3065200999845
V3,28,23,Female,Right,233,Block 2,0.8137340999674052,0.05,true,bird,bird,occlusion,control,mask,partial viewing,few large,Stimulus\all_stim\occlusion\partialviewing\fewlarge\control\fewlarge_partialViewing_control_bird5.png,mask_img/000000002197.png,experiment,e,e,754.9384944000049
V3,28,23,Female,Right,234,Block 2,0.8734340000664815,0.05,true,cat,cat,occlusion,control,mask,partial viewing,few large,Stimulus\all_stim\occlusion\partialviewing\fewlarge\control\fewlarge_partialViewing_control_cat9.png,mask_img/000000007558.png,experiment,i,i,756.562376899994
V3,28,23,Female,Right,235,Block 2,0.49532410001847893,0.025,true,person,person,occlusion,low,mask,partial viewing,many small,Stimulus\all_stim\occlusion\partialviewing\manysmall\low\manysmall_partialViewing_low_person10.png,mask_img/000000061838.png,experiment,o,o,758.1861525999848
V3,28,23,Female,Right,236,Block 2,1.5869712000712752,0.025,false,banana,cat,occlusion,high,mask,partial viewing,many small,Stimulus\all_stim\occlusion\partialviewing\manysmall\high\manysmall_partialViewing_high_banana1.png,mask_img/000000041962.png,experiment,i,w,760.9066851000534
V3,28,23,Female,Right,237,Block 2,0.6754576000384986,0.1,true,person,person,occlusion,control,mask,partial viewing,many small,Stimulus\all_stim\occlusion\partialviewing\manysmall\control\manysmall_partialViewing_control_person1.png,mask_img/000000039656.png,experiment,o,o,762.553417099989
V3,28,23,Female,Right,238,Block 2,0.8995524999918416,0.1,true,building,building,occlusion,low,mask,partial viewing,few large,Stimulus\all_stim\occlusion\partialviewing\fewlarge\low\fewlarge_partialViewing_low_building5.png,mask_img/000000025034.png,experiment,r,r,764.2825641999952
V3,28,23,Female,Right,239,Block 2,0.670921300072223,0.025,false,bird,person,occlusion,low,mask,partial viewing,many small,Stimulus\all_stim\occlusion\partialviewing\manysmall\low\manysmall_partialViewing_low_bird8.png,mask_img/000000056137.png,experiment,o,e,766.0919447999913
V3,28,23,Female,Right,240,Block 2,0.80283880000934,0.05,true,bus,bus,occlusion,high,mask,partial viewing,many small,Stimulus\all_stim\occlusion\partialviewing\manysmall\high\manysmall_partialViewing_high_bus6.png,mask_img/000000047407.png,experiment,q,q,768.0586427000817
V3,28,23,Female,Right,241,Block 2,0.8515127999708056,0.025,true,firehydrant,firehydrant,occlusion,control,mask,partial viewing,few large,Stimulus\all_stim\occlusion\partialviewing\fewlarge\control\fewlarge_partialViewing_control_firehydrant2.png,mask_img/000000007934.png,experiment,p,p,769.9227073000511
V3,28,23,Female,Right,242,Block 2,0.703218900016509,0.05,true,person,person,occlusion,low,mask,partial viewing,few large,Stimulus\all_stim\occlusion\partialviewing\fewlarge\low\fewlarge_partialViewing_low_person10.png,mask_img/000000029128.png,experiment,o,o,771.35637579998
V3,28,23,Female,Right,243,Block 2,0.5621247999370098,0.025,true,firehydrant,firehydrant,occlusion,control,mask,partial viewing,many small,Stimulus\all_stim\occlusion\partialviewing\manysmall\control\manysmall_partialViewing_control_firehydrant5.png,mask_img/000000039211.png,experiment,p,p,772.6570041000377
V3,28,23,Female,Right,244,Block 2,0.8660879998933524,0.05,true,building,building,occlusion,control,mask,partial viewing,many small,Stimulus\all_stim\occlusion\partialviewing\manysmall\control\manysmall_partialViewing_control_building3.png,mask_img/000000035979.png,experiment,r,r,774.546427900088
V3,28,23,Female,Right,245,Block 2,0.5820911000482738,0.1,true,person,person,occlusion,control,mask,partial viewing,many small,Stimulus\all_stim\occlusion\partialviewing\manysmall\control\manysmall_partialViewing_control_person4.png,mask_img/000000040042.png,experiment,o,o,776.0094710000558
V3,28,23,Female,Right,246,Block 2,1.6873982000397518,0.05,true,bird,bird,occlusion,low,mask,partial viewing,many small,Stimulus\all_stim\occlusion\partialviewing\manysmall\low\manysmall_partialViewing_low_bird9.png,mask_img/000000056641.png,experiment,e,e,778.5227188999997
V3,28,23,Female,Right,247,Block 2,1.3240366000682116,0.025,false,cat,person,occlusion,high,mask,partial viewing,few large,Stimulus\all_stim\occlusion\partialviewing\fewlarge\high\fewlarge_partialViewing_high_cat5.png,mask_img/000000017409.png,experiment,o,i,780.6427037999965
V3,28,23,Female,Right,248,Block 2,0.6009852000279352,0.025,true,firehydrant,firehydrant,occlusion,high,mask,partial viewing,many small,Stimulus\all_stim\occlusion\partialviewing\manysmall\high\manysmall_partialViewing_high_firehydrant4.png,mask_img/000000050412.png,experiment,p,p,782.0984903000062
V3,28,23,Female,Right,249,Block 2,0.716183100012131,0.05,true,banana,banana,occlusion,control,mask,partial viewing,many small,Stimulus\all_stim\occlusion\partialviewing\manysmall\control\manysmall_partialViewing_control_banana3.png,mask_img/000000033323.png,experiment,w,w,783.650387300062
V3,28,23,Female,Right,250,Block 2,0.5559059999650344,0.05,true,firehydrant,firehydrant,occlusion,low,mask,partial viewing,few large,Stimulus\all_stim\occlusion\partialviewing\fewlarge\low\fewlarge_partialViewing_low_firehydrant8.png,mask_img/000000028988.png,experiment,p,p,785.3466620000545
V3,28,23,Female,Right,251,Block 2,0.7423248999984935,0.025,true,bus,bus,occlusion,low,mask,partial viewing,few large,Stimulus\all_stim\occlusion\partialviewing\fewlarge\low\fewlarge_partialViewing_low_bus10.png,mask_img/000000025855.png,experiment,q,q,786.9786656000651
V3,28,23,Female,Right,252,Block 2,1.160360100097023,0.05,true,bird,bird,occlusion,control,mask,partial viewing,many small,Stimulus\all_stim\occlusion\partialviewing\manysmall\control\manysmall_partialViewing_control_bird6.png,mask_img/000000034993.png,experiment,e,e,788.858602500055
V3,28,23,Female,Right,253,Block 2,0.8546439999481663,0.1,true,tree,tree,occlusion,high,mask,partial viewing,few large,Stimulus\all_stim\occlusion\partialviewing\fewlarge\high\fewlarge_partialViewing_high_tree3.png,mask_img/000000021942.png,experiment,u,u,790.5306398000102
V3,28,23,Female,Right,254,Block 2,0.5777892000041902,0.1,true,firehydrant,firehydrant,occlusion,control,mask,partial viewing,few large,Stimulus\all_stim\occlusion\partialviewing\fewlarge\control\fewlarge_partialViewing_control_firehydrant2.png,mask_img/000000007934.png,experiment,p,p,792.2320557000348
V3,28,23,Female,Right,255,Block 2,0.761759000015445,0.05,true,bus,bus,occlusion,high,mask,partial viewing,few large,Stimulus\all_stim\occlusion\partialviewing\fewlarge\high\fewlarge_partialViewing_high_bus6.png,mask_img/000000015987.png,experiment,q,q,793.9245355000021
V3,28,23,Female,Right,256,Block 2,0.7709420000901446,0.05,true,building,building,occlusion,high,mask,partial viewing,few large,Stimulus\all_stim\occlusion\partialviewing\fewlarge\high\fewlarge_partialViewing_high_building9.png,mask_img/000000015619.png,experiment,r,r,795.4104456000496
V3,28,23,Female,Right,257,Block 2,1.16732630005572,0.05,false,cat,person,occlusion,high,mask,partial viewing,many small,Stimulus\all_stim\occlusion\partialviewing\manysmall\high\manysmall_partialViewing_high_cat8.png,mask_img/000000049763.png,experiment,o,i,797.4844907000661
V3,28,23,Female,Right,258,Block 2,0.6448828000575304,0.025,true,banana,banana,occlusion,control,mask,partial viewing,few large,Stimulus\all_stim\occlusion\partialviewing\fewlarge\control\fewlarge_partialViewing_control_banana8.png,mask_img/000000000690.png,experiment,w,w,798.9145278000506
V3,28,23,Female,Right,259,Block 2,0.6413247999735177,0.05,true,person,person,occlusion,low,mask,partial viewing,few large,Stimulus\all_stim\occlusion\partialviewing\fewlarge\low\fewlarge_partialViewing_low_person8.png,mask_img/000000030611.png,experiment,o,o,800.5063517000526
V3,28,23,Female,Right,260,Block 2,0.5799510999349877,0.1,true,building,building,occlusion,control,mask,partial viewing,many small,Stimulus\all_stim\occlusion\partialviewing\manysmall\control\manysmall_partialViewing_control_building9.png,mask_img/000000036226.png,experiment,r,r,802.234681300004
V3,28,23,Female,Right,261,Block 2,0.9318255999824032,0.1,false,bird,firehydrant,occlusion,high,mask,partial viewing,many small,Stimulus\all_stim\occlusion\partialviewing\manysmall\high\manysmall_partialViewing_high_bird5.png,mask_img/000000044437.png,experiment,p,e,803.9309019000502
V3,28,23,Female,Right,262,Block 2,0.9347032000077888,0.05,true,firehydrant,firehydrant,occlusion,low,mask,partial viewing,many small,Stimulus\all_stim\occlusion\partialviewing\manysmall\low\manysmall_partialViewing_low_firehydrant7.png,mask_img/000000061084.png,experiment,p,p,805.6024642999982
V3,28,23,Female,Right,263,Block 2,0.7843795999651775,0.05,true,banana,banana,occlusion,low,mask,partial viewing,few large,Stimulus\all_stim\occlusion\partialviewing\fewlarge\low\fewlarge_partialViewing_low_banana9.png,mask_img/000000023967.png,experiment,w,w,807.1804979000008
V3,28,23,Female,Right,264,Block 2,0.6981464000418782,0.1,true,banana,banana,occlusion,control,mask,partial viewing,many small,Stimulus\all_stim\occlusion\partialviewing\manysmall\control\manysmall_partialViewing_control_banana3.png,mask_img/000000033323.png,experiment,w,w,808.8584863999858
V3,28,23,Female,Right,265,Block 2,0.9310507000191137,0.05,true,person,person,occlusion,high,mask,partial viewing,few large,Stimulus\all_stim\occlusion\partialviewing\fewlarge\high\fewlarge_partialViewing_high_person9.png,mask_img/000000021003.png,experiment,o,o,810.6505246000597
V3,28,23,Female,Right,266,Block 2,0.8434333000332117,0.025,true,building,building,occlusion,low,mask,partial viewing,many small,Stimulus\all_stim\occlusion\partialviewing\manysmall\low\manysmall_partialViewing_low_building3.png,mask_img/000000057646.png,experiment,r,r,812.4505522000836
V3,28,23,Female,Right,267,Block 2,0.8670189999975264,0.025,true,person,person,occlusion,high,mask,partial viewing,few large,Stimulus\all_stim\occlusion\partialviewing\fewlarge\high\fewlarge_partialViewing_high_person9.png,mask_img/000000021003.png,experiment,o,o,813.9945786000462
V3,28,23,Female,Right,268,Block 2,0.9683218999998644,0.1,false,cat,tree,occlusion,high,mask,partial viewing,many small,Stimulus\all_stim\occlusion\partialviewing\manysmall\high\manysmall_partialViewing_high_cat3.png,mask_img/000000049254.png,experiment,u,i,816.1145421999972
V3,28,23,Female,Right,269,Block 2,0.7498574999626726,0.025,true,building,building,occlusion,low,mask,partial viewing,few large,Stimulus\all_stim\occlusion\partialviewing\fewlarge\low\fewlarge_partialViewing_low_building2.png,mask_img/000000024702.png,experiment,r,r,817.538792300038
V3,28,23,Female,Right,270,Block 2,0.7707557999528944,0.05,true,bird,bird,occlusion,low,mask,partial viewing,many small,Stimulus\all_stim\occlusion\partialviewing\manysmall\low\manysmall_partialViewing_low_bird6.png,mask_img/000000056007.png,experiment,e,e,819.3724225000478
V3,28,23,Female,Right,271,Block 2,0.6747846000362188,0.025,true,bird,bird,occlusion,low,mask,partial viewing,many small,Stimulus\all_stim\occlusion\partialviewing\manysmall\low\manysmall_partialViewing_low_bird7.png,mask_img/000000056036.png,experiment,e,e,820.7467558000935
V3,28,23,Female,Right,272,Block 2,0.6597459999611601,0.05,true,bus,bus,occlusion,control,mask,partial viewing,few large,Stimulus\all_stim\occlusion\partialviewing\fewlarge\control\fewlarge_partialViewing_control_bus7.png,mask_img/000000006146.png,experiment,q,q,822.5307704000734
V3,28,23,Female,Right,273,Block 2,0.8372946999734268,0.1,true,banana,banana,occlusion,low,mask,partial viewing,many small,Stimulus\all_stim\occlusion\partialviewing\manysmall\low\manysmall_partialViewing_low_banana4.png,mask_img/000000055202.png,experiment,w,w,824.5064473000821
V3,28,23,Female,Right,274,Block 2,0.8249777000164613,0.025,true,building,building,occlusion,control,mask,partial viewing,many small,Stimulus\all_stim\occlusion\partialviewing\manysmall\control\manysmall_partialViewing_control_building8.png,mask_img/000000036091.png,experiment,r,r,826.2185406000353
V3,28,23,Female,Right,275,Block 2,0.6986897999886423,0.1,true,banana,banana,occlusion,high,mask,partial viewing,many small,Stimulus\all_stim\occlusion\partialviewing\manysmall\high\manysmall_partialViewing_high_banana8.png,mask_img/000000043291.png,experiment,w,w,827.6985343000852
V3,28,23,Female,Right,276,Block 2,0.7322955999989063,0.025,true,person,person,occlusion,high,mask,partial viewing,few large,Stimulus\all_stim\occlusion\partialviewing\fewlarge\high\fewlarge_partialViewing_high_person2.png,mask_img/000000019932.png,experiment,o,o,829.4424096000148
V3,28,23,Female,Right,277,Block 2,0.5474368999712169,0.025,true,person,person,occlusion,low,mask,partial viewing,few large,Stimulus\all_stim\occlusion\partialviewing\fewlarge\low\fewlarge_partialViewing_low_person4.png,mask_img/000000029730.png,experiment,o,o,830.9618639000691
V3,28,23,Female,Right,278,Block 2,0.9820410000393167,0.025,true,cat,cat,occlusion,high,mask,partial viewing,many small,Stimulus\all_stim\occlusion\partialviewing\manysmall\high\manysmall_partialViewing_high_cat5.png,mask_img/000000049428.png,experiment,i,i,833.0025983999949
V3,28,23,Female,Right,279,Block 2,0.609172800090164,0.05,true,cat,cat,occlusion,control,mask,partial viewing,few large,Stimulus\all_stim\occlusion\partialviewing\fewlarge\control\fewlarge_partialViewing_control_cat4.png,mask_img/000000006842.png,experiment,i,i,834.490190600045
V3,28,23,Female,Right,280,Block 2,0.49015770002733916,0.1,false,bus,banana,occlusion,control,mask,partial viewing,few large,Stimulus\all_stim\occlusion\partialviewing\fewlarge\control\fewlarge_partialViewing_control_bus6.png,mask_img/000000005862.png,experiment,w,q,836.1004349000286
V3,28,23,Female,Right,281,Block 2,1.084954799967818,0.05,true,bird,bird,occlusion,control,mask,partial viewing,many small,Stimulus\all_stim\occlusion\partialviewing\manysmall\control\manysmall_partialViewing_control_bird3.png,mask_img/000000034570.png,experiment,e,e,838.1862958000274
V3,28,23,Female,Right,282,Block 2,1.4560809000395238,0.05,false,person,banana,occlusion,high,mask,partial viewing,many small,Stimulus\all_stim\occlusion\partialviewing\manysmall\high\manysmall_partialViewing_high_person8.png,mask_img/000000052606.png,experiment,w,o,840.5299934000941
V3,28,23,Female,Right,283,Block 2,0.7478882999857888,0.05,true,firehydrant,firehydrant,occlusion,low,mask,partial viewing,few large,Stimulus\all_stim\occlusion\partialviewing\fewlarge\low\fewlarge_partialViewing_low_firehydrant3.png,mask_img/000000028518.png,experiment,p,p,842.0586043000221
V3,28,23,Female,Right,284,Block 2,1.2667848999844864,0.025,true,cat,cat,occlusion,control,mask,partial viewing,many small,Stimulus\all_stim\occlusion\partialviewing\manysmall\control\manysmall_partialViewing_control_cat8.png,mask_img/000000038817.png,experiment,i,i,844.3964082000311
V3,28,23,Female,Right,285,Block 2,0.7075230999616906,0.025,true,tree,tree,occlusion,low,mask,partial viewing,few large,Stimulus\all_stim\occlusion\partialviewing\fewlarge\low\fewlarge_partialViewing_low_tree8.png,mask_img/000000032918.png,experiment,u,u,845.9405283000087
V3,28,23,Female,Right,286,Block 2,0.7208267999812961,0.025,true,firehydrant,firehydrant,occlusion,high,mask,partial viewing,many small,Stimulus\all_stim\occlusion\partialviewing\manysmall\high\manysmall_partialViewing_high_firehydrant10.png,mask_img/000000050148.png,experiment,p,p,847.4184604000766
V3,28,23,Female,Right,287,Block 2,0.8553923999425024,0.1,true,building,building,occlusion,low,mask,partial viewing,few large,Stimulus\all_stim\occlusion\partialviewing\fewlarge\low\fewlarge_partialViewing_low_building10.png,mask_img/000000024591.png,experiment,r,r,849.3786600000458
V3,28,23,Female,Right,288,Block 2,1.330390999908559,0.1,true,cat,cat,occlusion,low,mask,partial viewing,many small,Stimulus\all_stim\occlusion\partialviewing\manysmall\low\manysmall_partialViewing_low_cat1.png,mask_img/000000059036.png,experiment,i,i,876.8587608999806
V3,28,23,Female,Right,289,Block 3,1.9247960000066087,0.1,true,bus,bus,occlusion,high,mask,partial viewing,few large,Stimulus\all_stim\occlusion\partialviewing\fewlarge\high\fewlarge_partialViewing_high_bus1.png,mask_img/000000015645.png,experiment,q,q,879.5466986000538
V3,28,23,Female,Right,290,Block 3,0.7270931999664754,0.1,true,person,person,occlusion,control,mask,partial viewing,few large,Stimulus\all_stim\occlusion\partialviewing\fewlarge\control\fewlarge_partialViewing_control_person2.png,mask_img/000000008787.png,experiment,o,o,881.4742573000258
V3,28,23,Female,Right,291,Block 3,1.0749040999216959,0.025,true,bus,bus,occlusion,high,mask,partial viewing,many small,Stimulus\all_stim\occlusion\partialviewing\manysmall\high\manysmall_partialViewing_high_bus2.png,mask_img/000000046852.png,experiment,q,q,883.5385377000785
V3,28,23,Female,Right,292,Block 3,0.6279118000529706,0.025,true,firehydrant,firehydrant,occlusion,low,mask,partial viewing,few large,Stimulus\all_stim\occlusion\partialviewing\fewlarge\low\fewlarge_partialViewing_low_firehydrant5.png,mask_img/000000028698.png,experiment,p,p,884.8345842000563
V3,28,23,Female,Right,293,Block 3,1.6271164999343455,0.025,true,bird,bird,occlusion,control,mask,partial viewing,many small,Stimulus\all_stim\occlusion\partialviewing\manysmall\control\manysmall_partialViewing_control_bird3.png,mask_img/000000034570.png,experiment,e,e,887.4105878000846
V3,28,23,Female,Right,294,Block 3,1.2132666000397876,0.1,true,bus,bus,occlusion,control,mask,partial viewing,few large,Stimulus\all_stim\occlusion\partialviewing\fewlarge\control\fewlarge_partialViewing_control_bus3.png,mask_img/000000005418.png,experiment,q,q,889.714575799997
V3,28,23,Female,Right,295,Block 3,0.770206099958159,0.1,true,tree,tree,occlusion,high,mask,partial viewing,few large,Stimulus\all_stim\occlusion\partialviewing\fewlarge\high\fewlarge_partialViewing_high_tree4.png,mask_img/000000021981.png,experiment,u,u,891.2666317999829
V3,28,23,Female,Right,296,Block 3,0.6996742999181151,0.1,true,bus,bus,occlusion,low,mask,partial viewing,many small,Stimulus\all_stim\occlusion\partialviewing\manysmall\low\manysmall_partialViewing_low_bus4.png,mask_img/000000058701.png,experiment,q,q,892.8178693000227
V3,28,23,Female,Right,297,Block 3,0.963800200028345,0.05,true,cat,cat,occlusion,high,mask,partial viewing,many small,Stimulus\all_stim\occlusion\partialviewing\manysmall\high\manysmall_partialViewing_high_cat3.png,mask_img/000000049254.png,experiment,i,i,894.698627200094
V3,28,23,Female,Right,298,Block 3,0.768850399996154,0.05,true,banana,banana,occlusion,control,mask,partial viewing,few large,Stimulus\all_stim\occlusion\partialviewing\fewlarge\control\fewlarge_partialViewing_control_banana5.png,mask_img/000000000459.png,experiment,w,w,896.2263412000611
V3,28,23,Female,Right,299,Block 3,0.8620306000811979,0.025,true,bird,bird,occlusion,high,mask,partial viewing,few large,Stimulus\all_stim\occlusion\partialviewing\fewlarge\high\fewlarge_partialViewing_high_bird6.png,mask_img/000000013944.png,experiment,e,e,898.0504435000475
V3,28,23,Female,Right,300,Block 3,0.8031663000583649,0.025,true,building,building,occlusion,control,mask,partial viewing,many small,Stimulus\all_stim\occlusion\partialviewing\manysmall\control\manysmall_partialViewing_control_building5.png,mask_img/000000036004.png,experiment,r,r,899.9945687000873
V3,28,23,Female,Right,301,Block 3,1.1550691000884399,0.05,true,banana,banana,occlusion,high,mask,partial viewing,many small,Stimulus\all_stim\occlusion\partialviewing\manysmall\high\manysmall_partialViewing_high_banana6.png,mask_img/000000042704.png,experiment,w,w,902.0667524000164
V3,28,23,Female,Right,302,Block 3,0.7762243999168277,0.025,true,bus,bus,occlusion,high,mask,partial viewing,many small,Stimulus\all_stim\occlusion\partialviewing\manysmall\high\manysmall_partialViewing_high_bus7.png,mask_img/000000047471.png,experiment,q,q,903.8905527000315
V3,28,23,Female,Right,303,Block 3,0.648206299985759,0.1,true,tree,tree,occlusion,low,mask,partial viewing,few large,Stimulus\all_stim\occlusion\partialviewing\fewlarge\low\fewlarge_partialViewing_low_tree1.png,mask_img/000000031053.png,experiment,u,u,905.5559405999957
V3,28,23,Female,Right,304,Block 3,0.9634710000827909,0.05,true,banana,banana,occlusion,control,mask,partial viewing,many small,Stimulus\all_stim\occlusion\partialviewing\manysmall\control\manysmall_partialViewing_control_banana5.png,mask_img/000000033669.png,experiment,w,w,907.194558700081
V3,28,23,Female,Right,305,Block 3,0.7274378999136388,0.05,true,tree,tree,occlusion,low,mask,partial viewing,many small,Stimulus\all_stim\occlusion\partialviewing\manysmall\low\manysmall_partialViewing_low_tree4.png,mask_img/000000063337.png,experiment,u,u,909.0505290000001
V3,28,23,Female,Right,306,Block 3,1.063629199983552,0.1,false,bird,cat,occlusion,high,mask,partial viewing,many small,Stimulus\all_stim\occlusion\partialviewing\manysmall\high\manysmall_partialViewing_high_bird6.png,mask_img/000000044523.png,experiment,i,e,911.1795506000053
V3,28,23,Female,Right,307,Block 3,0.8027984999353066,0.05,true,building,building,occlusion,control,mask,partial viewing,few large,Stimulus\all_stim\occlusion\partialviewing\fewlarge\control\fewlarge_partialViewing_control_building8.png,mask_img/000000005105.png,experiment,r,r,912.9306391000282
V3,28,23,Female,Right,308,Block 3,0.7161044999957085,0.1,true,tree,tree,occlusion,high,mask,partial viewing,many small,Stimulus\all_stim\occlusion\partialviewing\manysmall\high\manysmall_partialViewing_high_tree9.png,mask_img/000000054336.png,experiment,u,u,914.7302554000635
V3,28,23,Female,Right,309,Block 3,1.008775299997069,0.025,false,firehydrant,building,occlusion,high,mask,partial viewing,many small,Stimulus\all_stim\occlusion\partialviewing\manysmall\high\manysmall_partialViewing_high_firehydrant6.png,mask_img/000000050782.png,experiment,r,p,916.6584527000086
V3,28,23,Female,Right,310,Block 3,0.8426391000393778,0.05,true,building,building,occlusion,high,mask,partial viewing,many small,Stimulus\all_stim\occlusion\partialviewing\manysmall\high\manysmall_partialViewing_high_building2.png,mask_img/000000045306.png,experiment,r,r,918.2028682000237
V3,28,23,Female,Right,311,Block 3,0.8675379999913275,0.05,true,bird,bird,occlusion,control,mask,partial viewing,few large,Stimulus\all_stim\occlusion\partialviewing\fewlarge\control\fewlarge_partialViewing_control_bird1.png,mask_img/000000000873.png,experiment,e,e,920.243572800071
V3,28,23,Female,Right,312,Block 3,0.7706198000814766,0.025,true,person,person,occlusion,control,mask,partial viewing,many small,Stimulus\all_stim\occlusion\partialviewing\manysmall\control\manysmall_partialViewing_control_person5.png,mask_img/000000040275.png,experiment,o,o,922.1148897000821
V3,28,23,Female,Right,313,Block 3,0.8278588999528438,0.1,true,tree,tree,occlusion,high,mask,partial viewing,many small,Stimulus\all_stim\occlusion\partialviewing\manysmall\high\manysmall_partialViewing_high_tree4.png,mask_img/000000053143.png,experiment,u,u,923.842594100046
V3,28,23,Female,Right,314,Block 3,0.4826593999750912,0.05,true,cat,cat,occlusion,control,mask,partial viewing,many small,Stimulus\all_stim\occlusion\partialviewing\manysmall\control\manysmall_partialViewing_control_cat7.png,mask_img/000000038798.png,experiment,i,i,925.3298194999807
V3,28,23,Female,Right,315,Block 3,0.5038549000164494,0.025,true,tree,tree,occlusion,low,mask,partial viewing,many small,Stimulus\all_stim\occlusion\partialviewing\manysmall\low\manysmall_partialViewing_low_tree4.png,mask_img/000000063337.png,experiment,u,u,926.9485850000056
V3,28,23,Female,Right,316,Block 3,0.7254685000516474,0.025,true,building,building,occlusion,control,mask,partial viewing,few large,Stimulus\all_stim\occlusion\partialviewing\fewlarge\control\fewlarge_partialViewing_control_building2.png,mask_img/000000003483.png,experiment,r,r,928.7146450000582
V3,28,23,Female,Right,317,Block 3,0.7970845999661833,0.1,true,person,person,occlusion,high,mask,partial viewing,many small,Stimulus\all_stim\occlusion\partialviewing\manysmall\high\manysmall_partialViewing_high_person1.png,mask_img/000000051310.png,experiment,o,o,930.2586451000534
V3,28,23,Female,Right,318,Block 3,0.8675629000645131,0.1,true,bus,bus,occlusion,low,mask,partial viewing,few large,Stimulus\all_stim\occlusion\partialviewing\fewlarge\low\fewlarge_partialViewing_low_bus6.png,mask_img/000000026503.png,experiment,q,q,932.202504600049
V3,28,23,Female,Right,319,Block 3,1.0096577000804245,0.025,false,cat,tree,occlusion,high,mask,partial viewing,many small,Stimulus\all_stim\occlusion\partialviewing\manysmall\high\manysmall_partialViewing_high_cat4.png,mask_img/000000049331.png,experiment,u,i,934.1722726000007
V3,28,23,Female,Right,320,Block 3,0.8408904999960214,0.1,true,firehydrant,firehydrant,occlusion,high,mask,partial viewing,many small,Stimulus\all_stim\occlusion\partialviewing\manysmall\high\manysmall_partialViewing_high_firehydrant6.png,mask_img/000000050782.png,experiment,p,p,935.9066622999962
V3,28,23,Female,Right,321,Block 3,0.5111424999777228,0.05,true,firehydrant,firehydrant,occlusion,control,mask,partial viewing,few large,Stimulus\all_stim\occlusion\partialviewing\fewlarge\control\fewlarge_partialViewing_control_firehydrant5.png,mask_img/000000008006.png,experiment,p,p,937.3176890000468
V3,28,23,Female,Right,322,Block 3,0.4889631000114605,0.05,true,firehydrant,firehydrant,occlusion,high,mask,partial viewing,few large,Stimulus\all_stim\occlusion\partialviewing\fewlarge\high\fewlarge_partialViewing_high_firehydrant10.png,mask_img/000000018441.png,experiment,p,p,938.6192462000763
V3,28,23,Female,Right,323,Block 3,0.9385415998985991,0.1,false,banana,person,occlusion,high,mask,partial viewing,many small,Stimulus\all_stim\occlusion\partialviewing\manysmall\high\manysmall_partialViewing_high_banana10.png,mask_img/000000042196.png,experiment,o,w,940.3224654999794
V3,28,23,Female,Right,324,Block 3,0.8300728999311104,0.05,true,person,person,occlusion,high,mask,partial viewing,few large,Stimulus\all_stim\occlusion\partialviewing\fewlarge\high\fewlarge_partialViewing_high_person6.png,mask_img/000000020392.png,experiment,o,o,942.258318200009
V3,28,23,Female,Right,325,Block 3,0.6985843000002205,0.025,true,firehydrant,firehydrant,occlusion,control,mask,partial viewing,many small,Stimulus\all_stim\occlusion\partialviewing\manysmall\control\manysmall_partialViewing_control_firehydrant1.png,mask_img/000000039012.png,experiment,p,p,943.8026635000715
V3,28,23,Female,Right,326,Block 3,0.6371798999607563,0.05,true,tree,tree,occlusion,high,mask,partial viewing,many small,Stimulus\all_stim\occlusion\partialviewing\manysmall\high\manysmall_partialViewing_high_tree2.png,mask_img/000000052901.png,experiment,u,u,945.2925419000676
V3,28,23,Female,Right,327,Block 3,0.6015187000157312,0.1,true,firehydrant,firehydrant,occlusion,control,mask,partial viewing,many small,Stimulus\all_stim\occlusion\partialviewing\manysmall\control\manysmall_partialViewing_control_firehydrant7.png,mask_img/000000039475.png,experiment,p,p,946.7224875000538
V3,28,23,Female,Right,328,Block 3,0.8799805999733508,0.1,true,cat,cat,occlusion,low,mask,partial viewing,few large,Stimulus\all_stim\occlusion\partialviewing\fewlarge\low\fewlarge_partialViewing_low_cat3.png,mask_img/000000027556.png,experiment,i,i,948.5385827000719
V3,28,23,Female,Right,329,Block 3,1.6524290000088513,0.1,false,tree,bird,occlusion,high,mask,partial viewing,few large,Stimulus\all_stim\occlusion\partialviewing\fewlarge\high\fewlarge_partialViewing_high_tree10.png,mask_img/000000021419.png,experiment,e,u,951.2746424000943
V3,28,23,Female,Right,330,Block 3,1.7869545000139624,0.05,false,banana,bird,occlusion,high,mask,partial viewing,few large,Stimulus\all_stim\occlusion\partialviewing\fewlarge\high\fewlarge_partialViewing_high_banana10.png,mask_img/000000012178.png,experiment,e,w,953.9144085000735
V3,28,23,Female,Right,331,Block 3,1.0013644000282511,0.05,true,firehydrant,firehydrant,occlusion,high,mask,partial viewing,few large,Stimulus\all_stim\occlusion\partialviewing\fewlarge\high\fewlarge_partialViewing_high_firehydrant2.png,mask_img/000000018743.png,experiment,p,p,955.6825016000075
V3,28,23,Female,Right,332,Block 3,0.5287654999410734,0.025,true,bus,bus,occlusion,control,mask,partial viewing,few large,Stimulus\all_stim\occlusion\partialviewing\fewlarge\control\fewlarge_partialViewing_control_bus5.png,mask_img/000000005615.png,experiment,q,q,957.0931454000529
V3,28,23,Female,Right,333,Block 3,0.7552004000172019,0.025,true,building,building,occlusion,high,mask,partial viewing,few large,Stimulus\all_stim\occlusion\partialviewing\fewlarge\high\fewlarge_partialViewing_high_building2.png,mask_img/000000014472.png,experiment,r,r,958.6904581000563
