Version,pt_num,Age,Gender,Handedness,trial_nbr,block_number,rt,soa,acc,category,choiced_category,manipulation,difficulty,mask,type_occl,size_occl,filename,mask_filename,task,pressed_key,correct_key,Experiment Duration
V3,19,21,Male,Right,1,Training,3.378570300003048,0.1,false,cat,tree,occlusion,low,mask,partial viewing,few large,Training_Stimulus\fewlarge_partialViewing_low_cat432.png,mask_img/000000003084.png,training,u,w,100.39868109999225
V3,19,21,Male,Right,2,Training,4.75854260000051,0.1,false,firehydrant,person,occlusion,high,mask,partial viewing,many small,Training_Stimulus\manysmall_partialViewing_high_firehydrant90.png,mask_img/000000006146.png,training,o,e,106.34975170000689
V3,19,21,Male,Right,3,Training,2.5926986999984365,0.05,false,cat,firehydrant,occlusion,low,mask,partial viewing,few large,Training_Stimulus\fewlarge_partialViewing_low_cat432.png,mask_img/000000003084.png,training,e,w,110.1622107999865
V3,19,21,Male,Right,4,Training,1.4577627000107896,0.025,true,building,building,occlusion,control,mask,partial viewing,few large,Training_Stimulus\fewlarge_partialViewing_control_building24.png,mask_img/000000000312.png,training,q,q,113.11524699997972
V3,19,21,Male,Right,5,Training,2.6166342000069562,0.05,true,banana,banana,occlusion,control,mask,partial viewing,few large,Training_Stimulus\fewlarge_partialViewing_control_banana454.png,mask_img/000000000042.png,training,i,i,117.02158969998709
V3,19,21,Male,Right,6,Training,1.7957636999781244,0.025,true,firehydrant,firehydrant,occlusion,low,mask,partial viewing,few large,Training_Stimulus\fewlarge_partialViewing_low_firehydrant90.png,mask_img/000000003225.png,training,e,e,120.05271970000467
V3,19,21,Male,Right,7,Training,1.3650270999933127,0.05,true,banana,banana,occlusion,high,mask,partial viewing,few large,Training_Stimulus\fewlarge_partialViewing_high_banana454.png,mask_img/000000000690.png,training,i,i,122.81839229998877
V3,19,21,Male,Right,8,Training,1.8265763000235893,0.025,true,person,person,occlusion,control,mask,partial viewing,few large,Training_Stimulus\fewlarge_partialViewing_control_person189.png,mask_img/000000000595.png,training,o,o,125.9608370999922
V3,19,21,Male,Right,9,Training,2.5296641999739222,0.025,false,tree,banana,occlusion,high,mask,partial viewing,few large,Training_Stimulus\fewlarge_partialViewing_high_tree9.png,mask_img/000000002197.png,training,i,u,129.90508269998827
V3,19,21,Male,Right,10,Training,3.461930699995719,0.025,true,firehydrant,firehydrant,occlusion,control,mask,partial viewing,many small,Training_Stimulus\manysmall_partialViewing_control_firehydrant90.png,mask_img/000000005131.png,training,e,e,134.90503729999182
V3,19,21,Male,Right,11,Training,3.176796200015815,0.05,false,tree,banana,occlusion,low,mask,partial viewing,many small,Training_Stimulus\manysmall_partialViewing_low_tree9.png,mask_img/000000007325.png,training,i,u,139.29563989999588
V3,19,21,Male,Right,12,Training,1.9033849999832455,0.025,false,tree,person,occlusion,high,mask,partial viewing,many small,Training_Stimulus\manysmall_partialViewing_high_tree9.png,mask_img/000000006263.png,training,o,u,142.34250569998403
V3,19,21,Male,Right,13,Training,1.6561999999976251,0.1,true,bus,bus,occlusion,low,mask,partial viewing,few large,Training_Stimulus\fewlarge_partialViewing_low_bus180.png,mask_img/000000002892.png,training,p,p,145.1236435000028
V3,19,21,Male,Right,14,Training,1.7515419000119437,0.025,false,person,banana,occlusion,low,mask,partial viewing,many small,Training_Stimulus\manysmall_partialViewing_low_person189.png,mask_img/000000007179.png,training,i,o,148.29569050000282
V3,19,21,Male,Right,15,Training,1.1869421000010334,0.05,true,bus,bus,occlusion,high,mask,partial viewing,few large,Training_Stimulus\fewlarge_partialViewing_high_bus180.png,mask_img/000000001053.png,training,p,p,150.8596155999985
V3,19,21,Male,Right,16,Training,2.197824300004868,0.025,false,bird,banana,occlusion,low,mask,partial viewing,many small,Training_Stimulus\manysmall_partialViewing_low_bird4.png,mask_img/000000006481.png,training,i,r,154.5158808999986
V3,19,21,Male,Right,17,Training,1.2644212000013795,0.025,true,bus,bus,occlusion,low,mask,partial viewing,few large,Training_Stimulus\fewlarge_partialViewing_low_bus180.png,mask_img/000000002892.png,training,p,p,157.18779789999826
V3,19,21,Male,Right,18,Training,3.802319800015539,0.025,false,cat,firehydrant,occlusion,low,mask,partial viewing,few large,Training_Stimulus\fewlarge_partialViewing_low_cat432.png,mask_img/000000003084.png,training,e,w,162.18830529999104
V3,19,21,Male,Right,19,Training,2.3795287999964785,0.025,true,cat,cat,occlusion,control,mask,partial viewing,many small,Training_Stimulus\manysmall_partialViewing_control_cat432.png,mask_img/000000005105.png,training,w,w,165.78204629998072
V3,19,21,Male,Right,20,Training,1.8294332000077702,0.1,false,banana,person,occlusion,high,mask,partial viewing,many small,Training_Stimulus\manysmall_partialViewing_high_banana454.png,mask_img/000000005359.png,training,o,i,168.89141379998182
V3,19,21,Male,Right,21,Training,1.3608838000218384,0.1,false,tree,banana,occlusion,low,mask,partial viewing,many small,Training_Stimulus\manysmall_partialViewing_low_tree9.png,mask_img/000000007325.png,training,i,u,171.42405070000677
V3,19,21,Male,Right,22,Training,2.0351221000018995,0.05,false,tree,banana,occlusion,high,mask,partial viewing,many small,Training_Stimulus\manysmall_partialViewing_high_tree9.png,mask_img/000000006263.png,training,i,u,174.533292099979
V3,19,21,Male,Right,23,Training,1.3261753999977373,0.05,true,cat,cat,occlusion,low,mask,partial viewing,many small,Training_Stimulus\manysmall_partialViewing_low_cat432.png,mask_img/000000006842.png,training,w,w,177.39274349997868
V3,19,21,Male,Right,24,Training,1.4413112000038382,0.05,false,banana,person,occlusion,low,mask,partial viewing,few large,Training_Stimulus\fewlarge_partialViewing_low_banana454.png,mask_img/000000002337.png,training,o,i,180.29919719998725
V3,19,21,Male,Right,25,Training,1.9061765000224113,0.05,false,tree,cat,occlusion,low,mask,partial viewing,few large,Training_Stimulus\fewlarge_partialViewing_low_tree9.png,mask_img/000000003694.png,training,w,u,183.70520739999483
V3,19,21,Male,Right,26,Training,1.9777401000028476,0.025,true,banana,banana,occlusion,low,mask,partial viewing,many small,Training_Stimulus\manysmall_partialViewing_low_banana454.png,mask_img/000000006437.png,training,i,i,186.9724344999995
V3,19,21,Male,Right,27,Training,1.5430295999976806,0.025,false,bird,banana,occlusion,high,mask,partial viewing,many small,Training_Stimulus\manysmall_partialViewing_high_bird4.png,mask_img/000000005418.png,training,i,r,189.95681040000636
V3,19,21,Male,Right,28,Training,3.6718706999963615,0.1,true,tree,tree,occlusion,high,mask,partial viewing,many small,Training_Stimulus\manysmall_partialViewing_high_tree9.png,mask_img/000000006263.png,training,u,u,194.76243449997855
V3,19,21,Male,Right,29,Training,1.556229500012705,0.05,true,firehydrant,firehydrant,occlusion,high,mask,partial viewing,few large,Training_Stimulus\fewlarge_partialViewing_high_firehydrant90.png,mask_img/000000001810.png,training,e,e,197.6842304999882
V3,19,21,Male,Right,30,Training,1.5920459999761079,0.1,true,cat,cat,occlusion,control,mask,partial viewing,few large,Training_Stimulus\fewlarge_partialViewing_control_cat432.png,mask_img/000000000438.png,training,w,w,200.85918289999245
V3,19,21,Male,Right,31,Training,1.2551200999878347,0.05,true,building,building,occlusion,high,mask,partial viewing,few large,Training_Stimulus\fewlarge_partialViewing_high_building24.png,mask_img/000000000873.png,training,q,q,203.68429969999124
V3,19,21,Male,Right,32,Training,1.4801601000071969,0.05,true,firehydrant,firehydrant,occlusion,low,mask,partial viewing,few large,Training_Stimulus\fewlarge_partialViewing_low_firehydrant90.png,mask_img/000000003225.png,training,e,e,206.37319879999268
V3,19,21,Male,Right,33,Training,1.1458456999971531,0.025,true,building,building,occlusion,control,mask,partial viewing,many small,Training_Stimulus\manysmall_partialViewing_control_building24.png,mask_img/000000004739.png,training,q,q,209.1231004000001
V3,19,21,Male,Right,34,Training,1.0680520000169054,0.05,true,bus,bus,occlusion,low,mask,partial viewing,many small,Training_Stimulus\manysmall_partialViewing_low_bus180.png,mask_img/000000006709.png,training,p,p,211.57629510000697
V3,19,21,Male,Right,35,Training,2.2685937999922317,0.1,false,tree,cat,occlusion,low,mask,partial viewing,few large,Training_Stimulus\fewlarge_partialViewing_low_tree9.png,mask_img/000000003694.png,training,w,u,215.24836919998052
V3,19,21,Male,Right,36,Training,2.025897999992594,0.1,false,bird,tree,occlusion,low,mask,partial viewing,many small,Training_Stimulus\manysmall_partialViewing_low_bird4.png,mask_img/000000006481.png,training,u,r,218.35779409998213
V3,19,21,Male,Right,37,Training,2.7964397000032477,0.1,true,firehydrant,firehydrant,occlusion,control,mask,partial viewing,many small,Training_Stimulus\manysmall_partialViewing_control_firehydrant90.png,mask_img/000000005131.png,training,e,e,222.3928401999874
V3,19,21,Male,Right,38,Training,1.9241309000062756,0.1,true,tree,tree,occlusion,control,mask,partial viewing,many small,Training_Stimulus\manysmall_partialViewing_control_tree9.png,mask_img/000000005282.png,training,u,u,225.72094030000153
V3,19,21,Male,Right,39,Training,1.5347640999825671,0.025,true,banana,banana,occlusion,control,mask,partial viewing,few large,Training_Stimulus\fewlarge_partialViewing_control_banana454.png,mask_img/000000000042.png,training,i,i,228.40847559997928
V3,19,21,Male,Right,40,Training,1.4821010000014212,0.025,true,firehydrant,firehydrant,occlusion,high,mask,partial viewing,many small,Training_Stimulus\manysmall_partialViewing_high_firehydrant90.png,mask_img/000000006146.png,training,e,e,231.22247889998835
V3,19,21,Male,Right,41,Training,2.5204295000003185,0.1,true,tree,tree,occlusion,high,mask,partial viewing,few large,Training_Stimulus\fewlarge_partialViewing_high_tree9.png,mask_img/000000002197.png,training,u,u,235.20691730000544
V3,19,21,Male,Right,42,Training,1.1083110999898054,0.05,true,bus,bus,occlusion,high,mask,partial viewing,many small,Training_Stimulus\manysmall_partialViewing_high_bus180.png,mask_img/000000005615.png,training,p,p,237.69114239999908
V3,19,21,Male,Right,43,Training,1.855024599994067,0.1,true,building,building,occlusion,low,mask,partial viewing,few large,Training_Stimulus\fewlarge_partialViewing_low_building24.png,mask_img/000000002822.png,training,q,q,240.89634109998588
V3,19,21,Male,Right,44,Training,0.9571293999906629,0.1,true,building,building,occlusion,high,mask,partial viewing,many small,Training_Stimulus\manysmall_partialViewing_high_building24.png,mask_img/000000005574.png,training,q,q,242.98993119999068
V3,19,21,Male,Right,1,Block 1,3.1162926999968477,0.05,true,bird,bird,occlusion,low,mask,partial viewing,few large,Stimulus\all_stim\occlusion\partialviewing\fewlarge\low\fewlarge_partialViewing_low_bird7.png,mask_img/000000024403.png,experiment,r,r,271.5714560000051
V3,19,21,Male,Right,2,Block 1,1.899454099999275,0.05,true,firehydrant,firehydrant,occlusion,low,mask,partial viewing,few large,Stimulus\all_stim\occlusion\partialviewing\fewlarge\low\fewlarge_partialViewing_low_firehydrant9.png,mask_img/000000029056.png,experiment,e,e,274.4753004999948
V3,19,21,Male,Right,3,Block 1,1.7002018000057433,0.05,true,tree,tree,occlusion,control,mask,partial viewing,few large,Stimulus\all_stim\occlusion\partialviewing\fewlarge\control\fewlarge_partialViewing_control_tree3.png,mask_img/000000010566.png,experiment,u,u,277.2511952999921
V3,19,21,Male,Right,4,Block 1,2.075692300015362,0.05,false,person,bird,occlusion,high,mask,partial viewing,few large,Stimulus\all_stim\occlusion\partialviewing\fewlarge\high\fewlarge_partialViewing_high_person4.png,mask_img/000000020202.png,experiment,r,o,280.24312729999656
V3,19,21,Male,Right,5,Block 1,1.6667606999981217,0.025,true,bus,bus,occlusion,control,mask,partial viewing,many small,Stimulus\all_stim\occlusion\partialviewing\manysmall\control\manysmall_partialViewing_control_bus5.png,mask_img/000000037140.png,experiment,p,p,283.03538299998036
V3,19,21,Male,Right,6,Block 1,3.3927839000243694,0.05,true,tree,tree,occlusion,control,mask,partial viewing,many small,Stimulus\all_stim\occlusion\partialviewing\manysmall\control\manysmall_partialViewing_control_tree1.png,mask_img/000000040886.png,experiment,u,u,287.2593565999996
V3,19,21,Male,Right,7,Block 1,1.0482981000095606,0.025,true,bus,bus,occlusion,low,mask,partial viewing,few large,Stimulus\all_stim\occlusion\partialviewing\fewlarge\low\fewlarge_partialViewing_low_bus5.png,mask_img/000000026497.png,experiment,p,p,289.01108159997966
V3,19,21,Male,Right,8,Block 1,0.9590027999947779,0.025,true,bus,bus,occlusion,control,mask,partial viewing,few large,Stimulus\all_stim\occlusion\partialviewing\fewlarge\control\fewlarge_partialViewing_control_bus9.png,mask_img/000000006263.png,experiment,p,p,290.7551431999891
V3,19,21,Male,Right,9,Block 1,1.413467700011097,0.1,true,firehydrant,firehydrant,occlusion,control,mask,partial viewing,few large,Stimulus\all_stim\occlusion\partialviewing\fewlarge\control\fewlarge_partialViewing_control_firehydrant8.png,mask_img/000000008193.png,experiment,e,e,292.9394345000037
V3,19,21,Male,Right,10,Block 1,3.5914632999920286,0.1,true,banana,banana,occlusion,control,mask,partial viewing,few large,Stimulus\all_stim\occlusion\partialviewing\fewlarge\control\fewlarge_partialViewing_control_banana5.png,mask_img/000000000459.png,experiment,i,i,297.5953811999934
V3,19,21,Male,Right,11,Block 1,1.045695999986492,0.1,true,bus,bus,occlusion,low,mask,partial viewing,many small,Stimulus\all_stim\occlusion\partialviewing\manysmall\low\manysmall_partialViewing_low_bus7.png,mask_img/000000058822.png,experiment,p,p,299.70728000000236
V3,19,21,Male,Right,12,Block 1,1.2893043000076432,0.05,true,bus,bus,occlusion,high,mask,partial viewing,few large,Stimulus\all_stim\occlusion\partialviewing\fewlarge\high\fewlarge_partialViewing_high_bus9.png,mask_img/000000016764.png,experiment,p,p,301.7629854999832
V3,19,21,Male,Right,13,Block 1,2.562227799993707,0.1,false,tree,cat,occlusion,high,mask,partial viewing,many small,Stimulus\all_stim\occlusion\partialviewing\manysmall\high\manysmall_partialViewing_high_tree8.png,mask_img/000000054334.png,experiment,w,u,305.4192111000011
V3,19,21,Male,Right,14,Block 1,1.3332072999910451,0.025,false,building,tree,occlusion,high,mask,partial viewing,few large,Stimulus\all_stim\occlusion\partialviewing\fewlarge\high\fewlarge_partialViewing_high_building4.png,mask_img/000000014592.png,experiment,u,q,307.4511827999959
V3,19,21,Male,Right,15,Block 1,1.545861699996749,0.1,true,tree,tree,occlusion,low,mask,partial viewing,many small,Stimulus\all_stim\occlusion\partialviewing\manysmall\low\manysmall_partialViewing_low_tree2.png,mask_img/000000062875.png,experiment,u,u,309.91533269998035
V3,19,21,Male,Right,16,Block 1,2.8789894000219647,0.025,true,cat,cat,occlusion,high,mask,partial viewing,many small,Stimulus\all_stim\occlusion\partialviewing\manysmall\high\manysmall_partialViewing_high_cat8.png,mask_img/000000049763.png,experiment,w,w,313.90746610000497
V3,19,21,Male,Right,17,Block 1,1.6394147999817505,0.025,true,firehydrant,firehydrant,occlusion,low,mask,partial viewing,many small,Stimulus\all_stim\occlusion\partialviewing\manysmall\low\manysmall_partialViewing_low_firehydrant2.png,mask_img/000000060548.png,experiment,e,e,316.5471800999949
V3,19,21,Male,Right,18,Block 1,1.689131199993426,0.05,false,tree,bird,occlusion,high,mask,partial viewing,few large,Stimulus\all_stim\occlusion\partialviewing\fewlarge\high\fewlarge_partialViewing_high_tree10.png,mask_img/000000021419.png,experiment,r,u,319.25125129998196
V3,19,21,Male,Right,19,Block 1,1.1956091000174638,0.025,true,banana,banana,occlusion,control,mask,partial viewing,many small,Stimulus\all_stim\occlusion\partialviewing\manysmall\control\manysmall_partialViewing_control_banana2.png,mask_img/000000033126.png,experiment,i,i,321.5711308000027
V3,19,21,Male,Right,20,Block 1,1.1098699999856763,0.025,true,person,person,occlusion,low,mask,partial viewing,many small,Stimulus\all_stim\occlusion\partialviewing\manysmall\low\manysmall_partialViewing_low_person3.png,mask_img/000000062128.png,experiment,o,o,323.5712454000022
V3,19,21,Male,Right,21,Block 1,1.5725376999762375,0.025,true,firehydrant,firehydrant,occlusion,high,mask,partial viewing,few large,Stimulus\all_stim\occlusion\partialviewing\fewlarge\high\fewlarge_partialViewing_high_firehydrant2.png,mask_img/000000018743.png,experiment,e,e,326.03503609998734
V3,19,21,Male,Right,22,Block 1,2.681459300016286,0.025,false,cat,tree,occlusion,low,mask,partial viewing,few large,Stimulus\all_stim\occlusion\partialviewing\fewlarge\low\fewlarge_partialViewing_low_cat3.png,mask_img/000000027556.png,experiment,u,w,329.65934680000646
V3,19,21,Male,Right,23,Block 1,1.8394113999966066,0.05,false,bird,cat,occlusion,high,mask,partial viewing,few large,Stimulus\all_stim\occlusion\partialviewing\fewlarge\high\fewlarge_partialViewing_high_bird1.png,mask_img/000000013061.png,experiment,w,r,332.667309499986
V3,19,21,Male,Right,24,Block 1,1.2660085000097752,0.05,true,person,person,occlusion,control,mask,partial viewing,many small,Stimulus\all_stim\occlusion\partialviewing\manysmall\control\manysmall_partialViewing_control_person8.png,mask_img/000000040466.png,experiment,o,o,334.6835105000064
V3,19,21,Male,Right,25,Block 1,1.683470899995882,0.05,true,cat,cat,occlusion,low,mask,partial viewing,many small,Stimulus\all_stim\occlusion\partialviewing\manysmall\low\manysmall_partialViewing_low_cat9.png,mask_img/000000060387.png,experiment,w,w,337.30736599999364
V3,19,21,Male,Right,26,Block 1,1.295887100015534,0.025,false,bird,firehydrant,occlusion,control,mask,partial viewing,many small,Stimulus\all_stim\occlusion\partialviewing\manysmall\control\manysmall_partialViewing_control_bird8.png,mask_img/000000035190.png,experiment,e,r,339.5152628000069
V3,19,21,Male,Right,27,Block 1,1.8148991000198293,0.1,false,person,bird,occlusion,high,mask,partial viewing,many small,Stimulus\all_stim\occlusion\partialviewing\manysmall\high\manysmall_partialViewing_high_person8.png,mask_img/000000052606.png,experiment,r,o,342.21935400000075
V3,19,21,Male,Right,28,Block 1,1.060915100009879,0.1,true,bird,bird,occlusion,high,mask,partial viewing,few large,Stimulus\all_stim\occlusion\partialviewing\fewlarge\high\fewlarge_partialViewing_high_bird1.png,mask_img/000000013061.png,experiment,r,r,344.0354542999994
V3,19,21,Male,Right,29,Block 1,1.010375899990322,0.1,true,bird,bird,occlusion,low,mask,partial viewing,many small,Stimulus\all_stim\occlusion\partialviewing\manysmall\low\manysmall_partialViewing_low_bird1.png,mask_img/000000055694.png,experiment,r,r,346.1153201999841
V3,19,21,Male,Right,30,Block 1,1.44562370001222,0.05,true,tree,tree,occlusion,low,mask,partial viewing,few large,Stimulus\all_stim\occlusion\partialviewing\fewlarge\low\fewlarge_partialViewing_low_tree9.png,mask_img/000000032965.png,experiment,u,u,348.7151818999846
V3,19,21,Male,Right,31,Block 1,1.240203900000779,0.1,true,person,person,occlusion,low,mask,partial viewing,few large,Stimulus\all_stim\occlusion\partialviewing\fewlarge\low\fewlarge_partialViewing_low_person1.png,mask_img/000000029090.png,experiment,o,o,350.99530059998506
V3,19,21,Male,Right,32,Block 1,1.4298789000022225,0.025,false,cat,tree,occlusion,high,mask,partial viewing,many small,Stimulus\all_stim\occlusion\partialviewing\manysmall\high\manysmall_partialViewing_high_cat1.png,mask_img/000000048664.png,experiment,u,w,353.29140049999114
V3,19,21,Male,Right,33,Block 1,0.8711941000074148,0.05,true,bus,bus,occlusion,control,mask,partial viewing,few large,Stimulus\all_stim\occlusion\partialviewing\fewlarge\control\fewlarge_partialViewing_control_bus7.png,mask_img/000000006146.png,experiment,p,p,355.22728839999763
V3,19,21,Male,Right,34,Block 1,0.9594510000024457,0.05,true,building,building,occlusion,control,mask,partial viewing,many small,Stimulus\all_stim\occlusion\partialviewing\manysmall\control\manysmall_partialViewing_control_building2.png,mask_img/000000035864.png,experiment,q,q,357.3151746999938
V3,19,21,Male,Right,35,Block 1,1.2518240000063088,0.05,false,firehydrant,person,occlusion,high,mask,partial viewing,few large,Stimulus\all_stim\occlusion\partialviewing\fewlarge\high\fewlarge_partialViewing_high_firehydrant1.png,mask_img/000000017944.png,experiment,o,e,359.3713682999951
V3,19,21,Male,Right,36,Block 1,1.3498623999767005,0.025,true,banana,banana,occlusion,control,mask,partial viewing,few large,Stimulus\all_stim\occlusion\partialviewing\fewlarge\control\fewlarge_partialViewing_control_banana5.png,mask_img/000000000459.png,experiment,i,i,361.41155269998126
V3,19,21,Male,Right,37,Block 1,1.1453991000016686,0.1,true,bus,bus,occlusion,high,mask,partial viewing,many small,Stimulus\all_stim\occlusion\partialviewing\manysmall\high\manysmall_partialViewing_high_bus8.png,mask_img/000000048169.png,experiment,p,p,363.28359000000637
V3,19,21,Male,Right,38,Block 1,1.162579800002277,0.1,true,banana,banana,occlusion,control,mask,partial viewing,many small,Stimulus\all_stim\occlusion\partialviewing\manysmall\control\manysmall_partialViewing_control_banana6.png,mask_img/000000033756.png,experiment,i,i,365.5558967999823
V3,19,21,Male,Right,39,Block 1,1.3588693999918178,0.1,true,building,building,occlusion,low,mask,partial viewing,few large,Stimulus\all_stim\occlusion\partialviewing\fewlarge\low\fewlarge_partialViewing_low_building7.png,mask_img/000000025192.png,experiment,q,q,367.6033291000058
V3,19,21,Male,Right,40,Block 1,1.780802399996901,0.05,false,tree,bird,occlusion,low,mask,partial viewing,many small,Stimulus\all_stim\occlusion\partialviewing\manysmall\low\manysmall_partialViewing_low_tree1.png,mask_img/000000062690.png,experiment,r,u,370.20808029998443
V3,19,21,Male,Right,41,Block 1,1.1602351000183262,0.1,true,bus,bus,occlusion,control,mask,partial viewing,few large,Stimulus\all_stim\occlusion\partialviewing\fewlarge\control\fewlarge_partialViewing_control_bus9.png,mask_img/000000006263.png,experiment,p,p,372.09954589998233
V3,19,21,Male,Right,42,Block 1,1.1406457000121009,0.05,true,person,person,occlusion,high,mask,partial viewing,few large,Stimulus\all_stim\occlusion\partialviewing\fewlarge\high\fewlarge_partialViewing_high_person7.png,mask_img/000000020421.png,experiment,o,o,374.0434100999846
V3,19,21,Male,Right,43,Block 1,1.366650199983269,0.025,true,building,building,occlusion,high,mask,partial viewing,few large,Stimulus\all_stim\occlusion\partialviewing\fewlarge\high\fewlarge_partialViewing_high_building6.png,mask_img/000000014774.png,experiment,q,q,376.31506569997873
V3,19,21,Male,Right,44,Block 1,1.3812364999903366,0.1,true,firehydrant,firehydrant,occlusion,low,mask,partial viewing,many small,Stimulus\all_stim\occlusion\partialviewing\manysmall\low\manysmall_partialViewing_low_firehydrant2.png,mask_img/000000060548.png,experiment,e,e,378.6114150999929
V3,19,21,Male,Right,45,Block 1,1.457733500021277,0.1,true,banana,banana,occlusion,low,mask,partial viewing,many small,Stimulus\all_stim\occlusion\partialviewing\manysmall\low\manysmall_partialViewing_low_banana1.png,mask_img/000000054532.png,experiment,i,i,380.96330649999436
V3,19,21,Male,Right,46,Block 1,1.3760918999905698,0.1,true,bird,bird,occlusion,high,mask,partial viewing,many small,Stimulus\all_stim\occlusion\partialviewing\manysmall\high\manysmall_partialViewing_high_bird1.png,mask_img/000000043966.png,experiment,r,r,383.2833441999974
V3,19,21,Male,Right,47,Block 1,0.918917800008785,0.1,true,building,building,occlusion,control,mask,partial viewing,many small,Stimulus\all_stim\occlusion\partialviewing\manysmall\control\manysmall_partialViewing_control_building4.png,mask_img/000000035985.png,experiment,q,q,384.93115879999823
V3,19,21,Male,Right,48,Block 1,1.0148795999994036,0.025,true,banana,banana,occlusion,control,mask,partial viewing,few large,Stimulus\all_stim\occlusion\partialviewing\fewlarge\control\fewlarge_partialViewing_control_banana8.png,mask_img/000000000690.png,experiment,i,i,386.96316290000686
V3,19,21,Male,Right,49,Block 1,1.2310258999932557,0.1,true,bird,bird,occlusion,control,mask,partial viewing,few large,Stimulus\all_stim\occlusion\partialviewing\fewlarge\control\fewlarge_partialViewing_control_bird10.png,mask_img/000000001053.png,experiment,r,r,388.89967199999955
V3,19,21,Male,Right,50,Block 1,1.5042297999898437,0.025,true,cat,cat,occlusion,high,mask,partial viewing,many small,Stimulus\all_stim\occlusion\partialviewing\manysmall\high\manysmall_partialViewing_high_cat7.png,mask_img/000000049602.png,experiment,w,w,391.5151962999953
V3,19,21,Male,Right,51,Block 1,1.3990111999737564,0.05,false,tree,banana,occlusion,low,mask,partial viewing,few large,Stimulus\all_stim\occlusion\partialviewing\fewlarge\low\fewlarge_partialViewing_low_tree1.png,mask_img/000000031053.png,experiment,i,u,393.80314169998746
V3,19,21,Male,Right,52,Block 1,1.7077535999997053,0.05,true,cat,cat,occlusion,control,mask,partial viewing,few large,Stimulus\all_stim\occlusion\partialviewing\fewlarge\control\fewlarge_partialViewing_control_cat9.png,mask_img/000000007558.png,experiment,w,w,396.33109069999773
V3,19,21,Male,Right,53,Block 1,0.9793033999740146,0.1,true,building,building,occlusion,high,mask,partial viewing,many small,Stimulus\all_stim\occlusion\partialviewing\manysmall\high\manysmall_partialViewing_high_building8.png,mask_img/000000046245.png,experiment,q,q,398.3390284999914
V3,19,21,Male,Right,54,Block 1,1.6045994999876712,0.1,true,cat,cat,occlusion,control,mask,partial viewing,many small,Stimulus\all_stim\occlusion\partialviewing\manysmall\control\manysmall_partialViewing_control_cat10.png,mask_img/000000038178.png,experiment,w,w,400.98718520000693
V3,19,21,Male,Right,55,Block 1,1.4670721000002231,0.025,true,building,building,occlusion,low,mask,partial viewing,many small,Stimulus\all_stim\occlusion\partialviewing\manysmall\low\manysmall_partialViewing_low_building2.png,mask_img/000000057551.png,experiment,q,q,403.3871572999924
V3,19,21,Male,Right,56,Block 1,0.9760351000004448,0.1,true,cat,cat,occlusion,control,mask,partial viewing,many small,Stimulus\all_stim\occlusion\partialviewing\manysmall\control\manysmall_partialViewing_control_cat4.png,mask_img/000000038479.png,experiment,w,w,405.11568109999644
V3,19,21,Male,Right,57,Block 1,1.3211615000036545,0.05,true,banana,banana,occlusion,low,mask,partial viewing,few large,Stimulus\all_stim\occlusion\partialviewing\fewlarge\low\fewlarge_partialViewing_low_banana1.png,mask_img/000000022545.png,experiment,i,i,407.3151254999975
V3,19,21,Male,Right,58,Block 1,1.2346070999919903,0.1,true,bird,bird,occlusion,control,mask,partial viewing,many small,Stimulus\all_stim\occlusion\partialviewing\manysmall\control\manysmall_partialViewing_control_bird9.png,mask_img/000000035514.png,experiment,r,r,409.4993112999946
V3,19,21,Male,Right,59,Block 1,0.8566454999963753,0.05,true,bird,bird,occlusion,control,mask,partial viewing,many small,Stimulus\all_stim\occlusion\partialviewing\manysmall\control\manysmall_partialViewing_control_bird10.png,mask_img/000000034304.png,experiment,r,r,411.25907749999897
V3,19,21,Male,Right,60,Block 1,1.1027115999895614,0.1,true,tree,tree,occlusion,control,mask,partial viewing,few large,Stimulus\all_stim\occlusion\partialviewing\fewlarge\control\fewlarge_partialViewing_control_tree6.png,mask_img/000000011328.png,experiment,u,u,413.02743190000183
V3,19,21,Male,Right,61,Block 1,2.9917568000091705,0.025,false,cat,bird,occlusion,control,mask,partial viewing,many small,Stimulus\all_stim\occlusion\partialviewing\manysmall\control\manysmall_partialViewing_control_cat8.png,mask_img/000000038817.png,experiment,r,w,416.69929600000614
V3,19,21,Male,Right,62,Block 1,1.5950871000241023,0.1,true,firehydrant,firehydrant,occlusion,low,mask,partial viewing,few large,Stimulus\all_stim\occlusion\partialviewing\fewlarge\low\fewlarge_partialViewing_low_firehydrant10.png,mask_img/000000028367.png,experiment,e,e,419.17953259998467
V3,19,21,Male,Right,63,Block 1,1.0991629000054672,0.05,true,person,person,occlusion,control,mask,partial viewing,few large,Stimulus\all_stim\occlusion\partialviewing\fewlarge\control\fewlarge_partialViewing_control_person10.png,mask_img/000000008469.png,experiment,o,o,421.0593554999796
V3,19,21,Male,Right,64,Block 1,0.8215491999872029,0.025,true,person,person,occlusion,low,mask,partial viewing,many small,Stimulus\all_stim\occlusion\partialviewing\manysmall\low\manysmall_partialViewing_low_person10.png,mask_img/000000061838.png,experiment,o,o,422.75522920000367
V3,19,21,Male,Right,65,Block 1,1.047649399988586,0.05,true,tree,tree,occlusion,low,mask,partial viewing,few large,Stimulus\all_stim\occlusion\partialviewing\fewlarge\low\fewlarge_partialViewing_low_tree4.png,mask_img/000000032364.png,experiment,u,u,424.49133769999025
V3,19,21,Male,Right,66,Block 1,1.2473069000116084,0.025,true,bus,bus,occlusion,high,mask,partial viewing,few large,Stimulus\all_stim\occlusion\partialviewing\fewlarge\high\fewlarge_partialViewing_high_bus10.png,mask_img/000000015733.png,experiment,p,p,426.58724809999694
V3,19,21,Male,Right,67,Block 1,0.8633683000225574,0.05,true,bus,bus,occlusion,high,mask,partial viewing,few large,Stimulus\all_stim\occlusion\partialviewing\fewlarge\high\fewlarge_partialViewing_high_bus5.png,mask_img/000000015986.png,experiment,p,p,428.5552985999966
V3,19,21,Male,Right,68,Block 1,2.1795947999926284,0.05,false,firehydrant,bus,occlusion,high,mask,partial viewing,few large,Stimulus\all_stim\occlusion\partialviewing\fewlarge\high\fewlarge_partialViewing_high_firehydrant4.png,mask_img/000000018882.png,experiment,p,e,431.4992968000006
V3,19,21,Male,Right,69,Block 1,1.4388115000037942,0.025,true,firehydrant,firehydrant,occlusion,high,mask,partial viewing,many small,Stimulus\all_stim\occlusion\partialviewing\manysmall\high\manysmall_partialViewing_high_firehydrant9.png,mask_img/000000051164.png,experiment,e,e,433.73133869998856
V3,19,21,Male,Right,70,Block 1,0.9798458000004757,0.05,true,cat,cat,occlusion,high,mask,partial viewing,few large,Stimulus\all_stim\occlusion\partialviewing\fewlarge\high\fewlarge_partialViewing_high_cat1.png,mask_img/000000017183.png,experiment,w,w,435.77103869998246
V3,19,21,Male,Right,71,Block 1,0.915352600015467,0.05,true,firehydrant,firehydrant,occlusion,control,mask,partial viewing,many small,Stimulus\all_stim\occlusion\partialviewing\manysmall\control\manysmall_partialViewing_control_firehydrant5.png,mask_img/000000039211.png,experiment,e,e,437.80302659998415
V3,19,21,Male,Right,72,Block 1,0.9407586999877822,0.025,true,building,building,occlusion,high,mask,partial viewing,few large,Stimulus\all_stim\occlusion\partialviewing\fewlarge\high\fewlarge_partialViewing_high_building7.png,mask_img/000000015155.png,experiment,q,q,439.5554837999807
V3,19,21,Male,Right,73,Block 1,1.2415737999835983,0.1,true,banana,banana,occlusion,control,mask,partial viewing,few large,Stimulus\all_stim\occlusion\partialviewing\fewlarge\control\fewlarge_partialViewing_control_banana3.png,mask_img/000000000394.png,experiment,i,i,441.85943979999865
V3,19,21,Male,Right,74,Block 1,1.383754799986491,0.025,true,tree,tree,occlusion,high,mask,partial viewing,few large,Stimulus\all_stim\occlusion\partialviewing\fewlarge\high\fewlarge_partialViewing_high_tree3.png,mask_img/000000021942.png,experiment,u,u,444.2512032999948
V3,19,21,Male,Right,75,Block 1,1.365064399986295,0.1,false,firehydrant,cat,occlusion,control,mask,partial viewing,few large,Stimulus\all_stim\occlusion\partialviewing\fewlarge\control\fewlarge_partialViewing_control_firehydrant9.png,mask_img/000000008329.png,experiment,w,e,446.57931659999304
V3,19,21,Male,Right,76,Block 1,1.3324485000048298,0.025,false,banana,tree,occlusion,control,mask,partial viewing,many small,Stimulus\all_stim\occlusion\partialviewing\manysmall\control\manysmall_partialViewing_control_banana10.png,mask_img/000000033074.png,experiment,u,i,448.6111823999963
V3,19,21,Male,Right,77,Block 1,2.3787204999825917,0.025,false,cat,banana,occlusion,low,mask,partial viewing,many small,Stimulus\all_stim\occlusion\partialviewing\manysmall\low\manysmall_partialViewing_low_cat2.png,mask_img/000000059201.png,experiment,i,w,452.1234262000071
V3,19,21,Male,Right,78,Block 1,0.8131415999960154,0.025,true,banana,banana,occlusion,control,mask,partial viewing,few large,Stimulus\all_stim\occlusion\partialviewing\fewlarge\control\fewlarge_partialViewing_control_banana1.png,mask_img/000000000042.png,experiment,i,i,453.8591990999994
V3,19,21,Male,Right,79,Block 1,0.8169116000062786,0.025,true,banana,banana,occlusion,low,mask,partial viewing,many small,Stimulus\all_stim\occlusion\partialviewing\manysmall\low\manysmall_partialViewing_low_banana3.png,mask_img/000000054875.png,experiment,i,i,455.81924640000216
V3,19,21,Male,Right,80,Block 1,1.1623888000031002,0.1,true,bird,bird,occlusion,low,mask,partial viewing,many small,Stimulus\all_stim\occlusion\partialviewing\manysmall\low\manysmall_partialViewing_low_bird7.png,mask_img/000000056036.png,experiment,r,r,457.68344920000527
V3,19,21,Male,Right,81,Block 1,0.9091296999831684,0.05,false,firehydrant,bird,occlusion,high,mask,partial viewing,many small,Stimulus\all_stim\occlusion\partialviewing\manysmall\high\manysmall_partialViewing_high_firehydrant9.png,mask_img/000000051164.png,experiment,r,e,459.2831050999812
V3,19,21,Male,Right,82,Block 1,0.9187054000212811,0.025,true,person,person,occlusion,control,mask,partial viewing,many small,Stimulus\all_stim\occlusion\partialviewing\manysmall\control\manysmall_partialViewing_control_person10.png,mask_img/000000039778.png,experiment,o,o,460.95523969997885
V3,19,21,Male,Right,83,Block 1,1.022483300010208,0.025,false,building,person,occlusion,high,mask,partial viewing,many small,Stimulus\all_stim\occlusion\partialviewing\manysmall\high\manysmall_partialViewing_high_building2.png,mask_img/000000045306.png,experiment,o,q,463.14722469999106
V3,19,21,Male,Right,84,Block 1,1.355586999998195,0.1,true,firehydrant,firehydrant,occlusion,high,mask,partial viewing,few large,Stimulus\all_stim\occlusion\partialviewing\fewlarge\high\fewlarge_partialViewing_high_firehydrant3.png,mask_img/000000018864.png,experiment,e,e,465.54717159998836
V3,19,21,Male,Right,85,Block 1,3.0565264000033494,0.05,false,cat,tree,occlusion,control,mask,partial viewing,few large,Stimulus\all_stim\occlusion\partialviewing\fewlarge\control\fewlarge_partialViewing_control_cat8.png,mask_img/000000007393.png,experiment,u,w,469.75566209998215
V3,19,21,Male,Right,86,Block 1,1.6230087999720126,0.1,false,cat,bird,occlusion,high,mask,partial viewing,many small,Stimulus\all_stim\occlusion\partialviewing\manysmall\high\manysmall_partialViewing_high_cat3.png,mask_img/000000049254.png,experiment,r,w,472.25160029999097
V3,19,21,Male,Right,87,Block 1,2.2885253000131343,0.025,false,building,bus,occlusion,low,mask,partial viewing,many small,Stimulus\all_stim\occlusion\partialviewing\manysmall\low\manysmall_partialViewing_low_building3.png,mask_img/000000057646.png,experiment,p,q,475.4597297
V3,19,21,Male,Right,88,Block 1,0.9473295000207145,0.025,true,building,building,occlusion,high,mask,partial viewing,many small,Stimulus\all_stim\occlusion\partialviewing\manysmall\high\manysmall_partialViewing_high_building10.png,mask_img/000000044989.png,experiment,q,q,477.1312373999972
V3,19,21,Male,Right,89,Block 1,0.772713999991538,0.05,true,building,building,occlusion,low,mask,partial viewing,few large,Stimulus\all_stim\occlusion\partialviewing\fewlarge\low\fewlarge_partialViewing_low_building3.png,mask_img/000000024808.png,experiment,q,q,478.96316839999054
V3,19,21,Male,Right,90,Block 1,1.1509420000074897,0.05,true,banana,banana,occlusion,low,mask,partial viewing,many small,Stimulus\all_stim\occlusion\partialviewing\manysmall\low\manysmall_partialViewing_low_banana3.png,mask_img/000000054875.png,experiment,i,i,481.0993128999835
V3,19,21,Male,Right,91,Block 1,0.7267513999831863,0.025,true,building,building,occlusion,control,mask,partial viewing,many small,Stimulus\all_stim\occlusion\partialviewing\manysmall\control\manysmall_partialViewing_control_building3.png,mask_img/000000035979.png,experiment,q,q,482.51529839998693
V3,19,21,Male,Right,92,Block 1,1.6473869000037666,0.05,true,building,building,occlusion,high,mask,partial viewing,few large,Stimulus\all_stim\occlusion\partialviewing\fewlarge\high\fewlarge_partialViewing_high_building9.png,mask_img/000000015619.png,experiment,q,q,485.24314019997837
V3,19,21,Male,Right,93,Block 1,0.7194319000118412,0.025,true,bus,bus,occlusion,control,mask,partial viewing,few large,Stimulus\all_stim\occlusion\partialviewing\fewlarge\control\fewlarge_partialViewing_control_bus5.png,mask_img/000000005615.png,experiment,p,p,486.9731485999946
V3,19,21,Male,Right,94,Block 1,0.9369834999961313,0.05,false,cat,banana,occlusion,low,mask,partial viewing,many small,Stimulus\all_stim\occlusion\partialviewing\manysmall\low\manysmall_partialViewing_low_cat2.png,mask_img/000000059201.png,experiment,i,w,488.62924350000685
V3,19,21,Male,Right,95,Block 1,1.6617670000123326,0.1,false,tree,banana,occlusion,control,mask,partial viewing,many small,Stimulus\all_stim\occlusion\partialviewing\manysmall\control\manysmall_partialViewing_control_tree6.png,mask_img/000000041272.png,experiment,i,u,491.0673734000011
V3,19,21,Male,Right,96,Block 1,0.9655870000133291,0.1,true,banana,banana,occlusion,low,mask,partial viewing,few large,Stimulus\all_stim\occlusion\partialviewing\fewlarge\low\fewlarge_partialViewing_low_banana8.png,mask_img/000000023656.png,experiment,i,i,492.73153279998223
V3,19,21,Male,Right,97,Block 1,1.7497452999814413,0.05,false,banana,tree,occlusion,high,mask,partial viewing,many small,Stimulus\all_stim\occlusion\partialviewing\manysmall\high\manysmall_partialViewing_high_banana5.png,mask_img/000000042541.png,experiment,u,i,495.3472611999896
V3,19,21,Male,Right,98,Block 1,0.9502379999903496,0.05,true,tree,tree,occlusion,high,mask,partial viewing,many small,Stimulus\all_stim\occlusion\partialviewing\manysmall\high\manysmall_partialViewing_high_tree3.png,mask_img/000000052936.png,experiment,u,u,497.13921019999543
V3,19,21,Male,Right,99,Block 1,1.0221472999837715,0.05,true,banana,banana,occlusion,high,mask,partial viewing,many small,Stimulus\all_stim\occlusion\partialviewing\manysmall\high\manysmall_partialViewing_high_banana8.png,mask_img/000000043291.png,experiment,i,i,499.20317039999645
V3,19,21,Male,Right,100,Block 1,2.5381077000056393,0.025,true,tree,tree,occlusion,high,mask,partial viewing,many small,Stimulus\all_stim\occlusion\partialviewing\manysmall\high\manysmall_partialViewing_high_tree2.png,mask_img/000000052901.png,experiment,u,u,502.76343599997927
V3,19,21,Male,Right,101,Block 1,2.097742500016466,0.025,true,bus,bus,occlusion,high,mask,partial viewing,many small,Stimulus\all_stim\occlusion\partialviewing\manysmall\high\manysmall_partialViewing_high_bus7.png,mask_img/000000047471.png,experiment,p,p,505.8914226999914
V3,19,21,Male,Right,102,Block 1,2.6092727000068408,0.025,true,cat,cat,occlusion,low,mask,partial viewing,few large,Stimulus\all_stim\occlusion\partialviewing\fewlarge\low\fewlarge_partialViewing_low_cat1.png,mask_img/000000027151.png,experiment,w,w,509.5312512999808
V3,19,21,Male,Right,103,Block 1,0.9057771000079811,0.025,true,person,person,occlusion,high,mask,partial viewing,few large,Stimulus\all_stim\occlusion\partialviewing\fewlarge\high\fewlarge_partialViewing_high_person2.png,mask_img/000000019932.png,experiment,o,o,511.2032237999956
V3,19,21,Male,Right,104,Block 1,0.6132672000094317,0.05,true,person,person,occlusion,high,mask,partial viewing,few large,Stimulus\all_stim\occlusion\partialviewing\fewlarge\high\fewlarge_partialViewing_high_person2.png,mask_img/000000019932.png,experiment,o,o,512.8831018999917
V3,19,21,Male,Right,105,Block 1,1.5620730000082403,0.025,true,bird,bird,occlusion,low,mask,partial viewing,many small,Stimulus\all_stim\occlusion\partialviewing\manysmall\low\manysmall_partialViewing_low_bird3.png,mask_img/000000055849.png,experiment,r,r,515.4992529999872
V3,19,21,Male,Right,106,Block 1,1.445892299991101,0.05,true,firehydrant,firehydrant,occlusion,high,mask,partial viewing,few large,Stimulus\all_stim\occlusion\partialviewing\fewlarge\high\fewlarge_partialViewing_high_firehydrant9.png,mask_img/000000019725.png,experiment,e,e,518.0030312000017
V3,19,21,Male,Right,107,Block 1,0.9421505999926012,0.025,true,banana,banana,occlusion,low,mask,partial viewing,few large,Stimulus\all_stim\occlusion\partialviewing\fewlarge\low\fewlarge_partialViewing_low_banana4.png,mask_img/000000023015.png,experiment,i,i,520.019072199997
V3,19,21,Male,Right,108,Block 1,0.8236358999856748,0.05,true,building,building,occlusion,control,mask,partial viewing,many small,Stimulus\all_stim\occlusion\partialviewing\manysmall\control\manysmall_partialViewing_control_building7.png,mask_img/000000036029.png,experiment,q,q,521.6192529999826
V3,19,21,Male,Right,109,Block 1,0.9137252999935299,0.05,true,banana,banana,occlusion,low,mask,partial viewing,many small,Stimulus\all_stim\occlusion\partialviewing\manysmall\low\manysmall_partialViewing_low_banana8.png,mask_img/000000055630.png,experiment,i,i,523.5711543999787
V3,19,21,Male,Right,110,Block 1,1.7046103999891784,0.05,true,tree,tree,occlusion,control,mask,partial viewing,many small,Stimulus\all_stim\occlusion\partialviewing\manysmall\control\manysmall_partialViewing_control_tree2.png,mask_img/000000041008.png,experiment,u,u,526.075236100005
V3,19,21,Male,Right,111,Block 1,0.8931383999879472,0.05,false,firehydrant,cat,occlusion,low,mask,partial viewing,few large,Stimulus\all_stim\occlusion\partialviewing\fewlarge\low\fewlarge_partialViewing_low_firehydrant1.png,mask_img/000000028304.png,experiment,w,e,527.6672171999817
V3,19,21,Male,Right,112,Block 1,2.8174103000201285,0.05,false,bus,bird,occlusion,low,mask,partial viewing,few large,Stimulus\all_stim\occlusion\partialviewing\fewlarge\low\fewlarge_partialViewing_low_bus4.png,mask_img/000000026053.png,experiment,r,p,531.3726660999819
V3,19,21,Male,Right,113,Block 1,0.964141499978723,0.1,true,tree,tree,occlusion,high,mask,partial viewing,few large,Stimulus\all_stim\occlusion\partialviewing\fewlarge\high\fewlarge_partialViewing_high_tree6.png,mask_img/000000022142.png,experiment,u,u,533.2593915000034
V3,19,21,Male,Right,114,Block 1,0.8219304000085685,0.025,true,tree,tree,occlusion,low,mask,partial viewing,many small,Stimulus\all_stim\occlusion\partialviewing\manysmall\low\manysmall_partialViewing_low_tree4.png,mask_img/000000063337.png,experiment,u,u,534.8751047999831
V3,19,21,Male,Right,115,Block 1,1.0049641999939922,0.025,true,firehydrant,firehydrant,occlusion,control,mask,partial viewing,many small,Stimulus\all_stim\occlusion\partialviewing\manysmall\control\manysmall_partialViewing_control_firehydrant1.png,mask_img/000000039012.png,experiment,e,e,536.7791686999844
V3,19,21,Male,Right,116,Block 1,0.8266498000011779,0.05,true,person,person,occlusion,low,mask,partial viewing,few large,Stimulus\all_stim\occlusion\partialviewing\fewlarge\low\fewlarge_partialViewing_low_person1.png,mask_img/000000029090.png,experiment,o,o,538.3711750999792
V3,19,21,Male,Right,117,Block 1,0.8558797999867238,0.1,true,tree,tree,occlusion,control,mask,partial viewing,few large,Stimulus\all_stim\occlusion\partialviewing\fewlarge\control\fewlarge_partialViewing_control_tree2.png,mask_img/000000010560.png,experiment,u,u,540.2354161999829
V3,19,21,Male,Right,118,Block 1,0.9803840000240598,0.025,true,cat,cat,occlusion,high,mask,partial viewing,few large,Stimulus\all_stim\occlusion\partialviewing\fewlarge\high\fewlarge_partialViewing_high_cat4.png,mask_img/000000017364.png,experiment,w,w,542.123185799981
V3,19,21,Male,Right,119,Block 1,1.945071199996164,0.1,true,firehydrant,firehydrant,occlusion,high,mask,partial viewing,many small,Stimulus\all_stim\occlusion\partialviewing\manysmall\high\manysmall_partialViewing_high_firehydrant9.png,mask_img/000000051164.png,experiment,e,e,544.8035494000069
V3,19,21,Male,Right,120,Block 1,1.666876900009811,0.05,true,banana,banana,occlusion,high,mask,partial viewing,many small,Stimulus\all_stim\occlusion\partialviewing\manysmall\high\manysmall_partialViewing_high_banana3.png,mask_img/000000042476.png,experiment,i,i,547.5316557000042
V3,19,21,Male,Right,121,Block 1,1.5111859000171535,0.05,true,bus,bus,occlusion,control,mask,partial viewing,many small,Stimulus\all_stim\occlusion\partialviewing\manysmall\control\manysmall_partialViewing_control_bus7.png,mask_img/000000037339.png,experiment,p,p,549.8032817000058
V3,19,21,Male,Right,122,Block 1,0.8040226000011899,0.05,true,bus,bus,occlusion,high,mask,partial viewing,many small,Stimulus\all_stim\occlusion\partialviewing\manysmall\high\manysmall_partialViewing_high_bus10.png,mask_img/000000046805.png,experiment,p,p,551.7311822999909
V3,19,21,Male,Right,123,Block 1,0.8631608000141568,0.1,true,building,building,occlusion,high,mask,partial viewing,few large,Stimulus\all_stim\occlusion\partialviewing\fewlarge\high\fewlarge_partialViewing_high_building8.png,mask_img/000000015366.png,experiment,q,q,553.4753554000054
V3,19,21,Male,Right,124,Block 1,1.601669600000605,0.1,true,cat,cat,occlusion,high,mask,partial viewing,many small,Stimulus\all_stim\occlusion\partialviewing\manysmall\high\manysmall_partialViewing_high_cat4.png,mask_img/000000049331.png,experiment,w,w,556.195387099986
V3,19,21,Male,Right,125,Block 1,1.282887400011532,0.025,true,bus,bus,occlusion,low,mask,partial viewing,few large,Stimulus\all_stim\occlusion\partialviewing\fewlarge\low\fewlarge_partialViewing_low_bus7.png,mask_img/000000026720.png,experiment,p,p,558.6112009999924
V3,19,21,Male,Right,126,Block 1,1.1389244000019971,0.025,false,person,tree,occlusion,high,mask,partial viewing,many small,Stimulus\all_stim\occlusion\partialviewing\manysmall\high\manysmall_partialViewing_high_person5.png,mask_img/000000052250.png,experiment,u,o,560.643399099994
V3,19,21,Male,Right,127,Block 1,0.8829281000071205,0.05,true,bus,bus,occlusion,low,mask,partial viewing,few large,Stimulus\all_stim\occlusion\partialviewing\fewlarge\low\fewlarge_partialViewing_low_bus8.png,mask_img/000000026782.png,experiment,p,p,562.667401499988
V3,19,21,Male,Right,128,Block 1,1.2029276000102982,0.025,false,building,bus,occlusion,high,mask,partial viewing,few large,Stimulus\all_stim\occlusion\partialviewing\fewlarge\high\fewlarge_partialViewing_high_building5.png,mask_img/000000014759.png,experiment,p,q,565.003515599994
V3,19,21,Male,Right,129,Block 1,1.4981105999904685,0.05,true,firehydrant,firehydrant,occlusion,control,mask,partial viewing,few large,Stimulus\all_stim\occlusion\partialviewing\fewlarge\control\fewlarge_partialViewing_control_firehydrant2.png,mask_img/000000007934.png,experiment,e,e,567.5074465000071
V3,19,21,Male,Right,130,Block 1,1.0603447999747004,0.025,true,building,building,occlusion,control,mask,partial viewing,many small,Stimulus\all_stim\occlusion\partialviewing\manysmall\control\manysmall_partialViewing_control_building2.png,mask_img/000000035864.png,experiment,q,q,569.2932853999955
V3,19,21,Male,Right,131,Block 1,0.9408010999904945,0.1,true,firehydrant,firehydrant,occlusion,control,mask,partial viewing,many small,Stimulus\all_stim\occlusion\partialviewing\manysmall\control\manysmall_partialViewing_control_firehydrant5.png,mask_img/000000039211.png,experiment,e,e,571.2131897999789
V3,19,21,Male,Right,132,Block 1,1.1034597999823745,0.025,true,firehydrant,firehydrant,occlusion,high,mask,partial viewing,many small,Stimulus\all_stim\occlusion\partialviewing\manysmall\high\manysmall_partialViewing_high_firehydrant6.png,mask_img/000000050782.png,experiment,e,e,573.3235309000011
V3,19,21,Male,Right,133,Block 1,0.7806535999989137,0.05,true,firehydrant,firehydrant,occlusion,control,mask,partial viewing,many small,Stimulus\all_stim\occlusion\partialviewing\manysmall\control\manysmall_partialViewing_control_firehydrant6.png,mask_img/000000039406.png,experiment,e,e,574.9311559000053
V3,19,21,Male,Right,134,Block 1,0.8726704000146128,0.1,true,cat,cat,occlusion,low,mask,partial viewing,few large,Stimulus\all_stim\occlusion\partialviewing\fewlarge\low\fewlarge_partialViewing_low_cat9.png,mask_img/000000028231.png,experiment,w,w,576.6671845999954
V3,19,21,Male,Right,135,Block 1,1.059099400008563,0.1,true,bird,bird,occlusion,low,mask,partial viewing,many small,Stimulus\all_stim\occlusion\partialviewing\manysmall\low\manysmall_partialViewing_low_bird6.png,mask_img/000000056007.png,experiment,r,r,578.4756550999882
V3,19,21,Male,Right,136,Block 1,0.9506495999812614,0.05,true,firehydrant,firehydrant,occlusion,low,mask,partial viewing,few large,Stimulus\all_stim\occlusion\partialviewing\fewlarge\low\fewlarge_partialViewing_low_firehydrant6.png,mask_img/000000028842.png,experiment,e,e,580.4833902999817
V3,19,21,Male,Right,137,Block 1,1.0217591000255197,0.1,true,person,person,occlusion,control,mask,partial viewing,few large,Stimulus\all_stim\occlusion\partialviewing\fewlarge\control\fewlarge_partialViewing_control_person10.png,mask_img/000000008469.png,experiment,o,o,582.579433899984
V3,19,21,Male,Right,138,Block 1,0.5813419999903999,0.1,true,person,person,occlusion,control,mask,partial viewing,few large,Stimulus\all_stim\occlusion\partialviewing\fewlarge\control\fewlarge_partialViewing_control_person7.png,mask_img/000000009648.png,experiment,o,o,583.9322855999926
V3,19,21,Male,Right,139,Block 1,1.5183544000028633,0.025,true,banana,banana,occlusion,high,mask,partial viewing,many small,Stimulus\all_stim\occlusion\partialviewing\manysmall\high\manysmall_partialViewing_high_banana9.png,mask_img/000000043579.png,experiment,i,i,586.5874709000054
V3,19,21,Male,Right,140,Block 1,0.7468225999909919,0.05,true,tree,tree,occlusion,high,mask,partial viewing,few large,Stimulus\all_stim\occlusion\partialviewing\fewlarge\high\fewlarge_partialViewing_high_tree9.png,mask_img/000000022440.png,experiment,u,u,588.2271483999793
V3,19,21,Male,Right,141,Block 1,1.3585653000045568,0.05,true,firehydrant,firehydrant,occlusion,high,mask,partial viewing,many small,Stimulus\all_stim\occlusion\partialviewing\manysmall\high\manysmall_partialViewing_high_firehydrant1.png,mask_img/000000049987.png,experiment,e,e,590.5153817999817
V3,19,21,Male,Right,142,Block 1,1.4979204999981448,0.1,true,bus,bus,occlusion,low,mask,partial viewing,many small,Stimulus\all_stim\occlusion\partialviewing\manysmall\low\manysmall_partialViewing_low_bus5.png,mask_img/000000058801.png,experiment,p,p,593.1234145000053
V3,19,21,Male,Right,143,Block 1,2.482752400013851,0.05,false,banana,bird,occlusion,low,mask,partial viewing,many small,Stimulus\all_stim\occlusion\partialviewing\manysmall\low\manysmall_partialViewing_low_banana9.png,mask_img/000000055652.png,experiment,r,i,596.2991664999863
V3,19,21,Male,Right,144,Block 1,2.5566527000046335,0.025,true,tree,tree,occlusion,high,mask,partial viewing,many small,Stimulus\all_stim\occlusion\partialviewing\manysmall\high\manysmall_partialViewing_high_tree9.png,mask_img/000000054336.png,experiment,u,u,621.331511299999
V3,19,21,Male,Right,145,Block 2,1.2082491000182927,0.025,true,cat,cat,occlusion,high,mask,partial viewing,few large,Stimulus\all_stim\occlusion\partialviewing\fewlarge\high\fewlarge_partialViewing_high_cat1.png,mask_img/000000017183.png,experiment,w,w,623.4591649999784
V3,19,21,Male,Right,146,Block 2,1.037225900014164,0.05,true,cat,cat,occlusion,high,mask,partial viewing,few large,Stimulus\all_stim\occlusion\partialviewing\fewlarge\high\fewlarge_partialViewing_high_cat8.png,mask_img/000000017791.png,experiment,w,w,625.3712485999858
V3,19,21,Male,Right,147,Block 2,0.8954892000183463,0.1,true,bus,bus,occlusion,control,mask,partial viewing,few large,Stimulus\all_stim\occlusion\partialviewing\fewlarge\control\fewlarge_partialViewing_control_bus1.png,mask_img/000000005142.png,experiment,p,p,627.0432464999903
V3,19,21,Male,Right,148,Block 2,0.9863043999939691,0.1,true,person,person,occlusion,low,mask,partial viewing,many small,Stimulus\all_stim\occlusion\partialviewing\manysmall\low\manysmall_partialViewing_low_person1.png,mask_img/000000061780.png,experiment,o,o,628.8995003000018
V3,19,21,Male,Right,149,Block 2,0.7879243000061251,0.025,false,firehydrant,cat,occlusion,low,mask,partial viewing,many small,Stimulus\all_stim\occlusion\partialviewing\manysmall\low\manysmall_partialViewing_low_firehydrant5.png,mask_img/000000060623.png,experiment,w,e,630.5711523999926
V3,19,21,Male,Right,150,Block 2,0.7786606999870855,0.025,true,firehydrant,firehydrant,occlusion,control,mask,partial viewing,few large,Stimulus\all_stim\occlusion\partialviewing\fewlarge\control\fewlarge_partialViewing_control_firehydrant7.png,mask_img/000000008053.png,experiment,e,e,632.1951885999879
V3,19,21,Male,Right,151,Block 2,1.1001471000199672,0.05,false,banana,firehydrant,occlusion,low,mask,partial viewing,few large,Stimulus\all_stim\occlusion\partialviewing\fewlarge\low\fewlarge_partialViewing_low_banana9.png,mask_img/000000023967.png,experiment,e,i,634.435353399982
V3,19,21,Male,Right,152,Block 2,1.3343653000192717,0.1,true,banana,banana,occlusion,high,mask,partial viewing,many small,Stimulus\all_stim\occlusion\partialviewing\manysmall\high\manysmall_partialViewing_high_banana2.png,mask_img/000000042408.png,experiment,i,i,636.587231499987
V3,19,21,Male,Right,153,Block 2,0.8053202999872155,0.025,true,bus,bus,occlusion,low,mask,partial viewing,few large,Stimulus\all_stim\occlusion\partialviewing\fewlarge\low\fewlarge_partialViewing_low_bus9.png,mask_img/000000027005.png,experiment,p,p,638.139357899985
V3,19,21,Male,Right,154,Block 2,0.8638457999913953,0.1,true,tree,tree,occlusion,control,mask,partial viewing,few large,Stimulus\all_stim\occlusion\partialviewing\fewlarge\control\fewlarge_partialViewing_control_tree8.png,mask_img/000000011544.png,experiment,u,u,639.7554120999994
V3,19,21,Male,Right,155,Block 2,0.8008832999912556,0.025,true,person,person,occlusion,low,mask,partial viewing,few large,Stimulus\all_stim\occlusion\partialviewing\fewlarge\low\fewlarge_partialViewing_low_person2.png,mask_img/000000029274.png,experiment,o,o,641.5791832999967
V3,19,21,Male,Right,156,Block 2,0.5861709000018891,0.1,true,bus,bus,occlusion,control,mask,partial viewing,many small,Stimulus\all_stim\occlusion\partialviewing\manysmall\control\manysmall_partialViewing_control_bus8.png,mask_img/000000037782.png,experiment,p,p,643.2062798999832
V3,19,21,Male,Right,157,Block 2,0.8549966000136919,0.1,true,banana,banana,occlusion,low,mask,partial viewing,few large,Stimulus\all_stim\occlusion\partialviewing\fewlarge\low\fewlarge_partialViewing_low_banana6.png,mask_img/000000023137.png,experiment,i,i,645.0991734999989
V3,19,21,Male,Right,158,Block 2,1.3051820999826305,0.1,false,building,bus,occlusion,high,mask,partial viewing,many small,Stimulus\all_stim\occlusion\partialviewing\manysmall\high\manysmall_partialViewing_high_building7.png,mask_img/000000046171.png,experiment,p,q,647.2516207000008
V3,19,21,Male,Right,159,Block 2,0.7930940999940503,0.1,false,banana,person,occlusion,low,mask,partial viewing,few large,Stimulus\all_stim\occlusion\partialviewing\fewlarge\low\fewlarge_partialViewing_low_banana3.png,mask_img/000000023004.png,experiment,o,i,649.1473848999885
V3,19,21,Male,Right,160,Block 2,2.964784799987683,0.025,false,person,firehydrant,occlusion,high,mask,partial viewing,many small,Stimulus\all_stim\occlusion\partialviewing\manysmall\high\manysmall_partialViewing_high_person4.png,mask_img/000000052087.png,experiment,e,o,652.9154100999876
V3,19,21,Male,Right,161,Block 2,0.7791122000198811,0.1,true,tree,tree,occlusion,control,mask,partial viewing,many small,Stimulus\all_stim\occlusion\partialviewing\manysmall\control\manysmall_partialViewing_control_tree1.png,mask_img/000000040886.png,experiment,u,u,654.6274054999813
V3,19,21,Male,Right,162,Block 2,0.6234139000007417,0.025,true,building,building,occlusion,control,mask,partial viewing,few large,Stimulus\all_stim\occlusion\partialviewing\fewlarge\control\fewlarge_partialViewing_control_building9.png,mask_img/000000005131.png,experiment,q,q,656.3073788000038
V3,19,21,Male,Right,163,Block 2,0.8545346999890171,0.1,true,bird,bird,occlusion,control,mask,partial viewing,few large,Stimulus\all_stim\occlusion\partialviewing\fewlarge\control\fewlarge_partialViewing_control_bird6.png,mask_img/000000002337.png,experiment,r,r,658.1314105000056
V3,19,21,Male,Right,164,Block 2,0.7222294000093825,0.1,true,cat,cat,occlusion,low,mask,partial viewing,few large,Stimulus\all_stim\occlusion\partialviewing\fewlarge\low\fewlarge_partialViewing_low_cat6.png,mask_img/000000027764.png,experiment,w,w,659.787507400004
V3,19,21,Male,Right,165,Block 2,0.9692036999913398,0.025,true,bus,bus,occlusion,control,mask,partial viewing,few large,Stimulus\all_stim\occlusion\partialviewing\fewlarge\control\fewlarge_partialViewing_control_bus10.png,mask_img/000000005282.png,experiment,p,p,661.7953224999947
V3,19,21,Male,Right,166,Block 2,1.2401385999983177,0.05,false,bird,firehydrant,occlusion,low,mask,partial viewing,many small,Stimulus\all_stim\occlusion\partialviewing\manysmall\low\manysmall_partialViewing_low_bird1.png,mask_img/000000055694.png,experiment,e,r,664.0993940999906
V3,19,21,Male,Right,167,Block 2,1.3681639000133146,0.05,true,bus,bus,occlusion,control,mask,partial viewing,many small,Stimulus\all_stim\occlusion\partialviewing\manysmall\control\manysmall_partialViewing_control_bus6.png,mask_img/000000037174.png,experiment,p,p,666.1954166000069
V3,19,21,Male,Right,168,Block 2,0.7861294000176713,0.1,true,tree,tree,occlusion,high,mask,partial viewing,many small,Stimulus\all_stim\occlusion\partialviewing\manysmall\high\manysmall_partialViewing_high_tree4.png,mask_img/000000053143.png,experiment,u,u,668.0754646999994
V3,19,21,Male,Right,169,Block 2,0.8295900000084657,0.1,true,cat,cat,occlusion,high,mask,partial viewing,few large,Stimulus\all_stim\occlusion\partialviewing\fewlarge\high\fewlarge_partialViewing_high_cat6.png,mask_img/000000017476.png,experiment,w,w,669.7954721999995
V3,19,21,Male,Right,170,Block 2,0.9044539000024088,0.1,true,firehydrant,firehydrant,occlusion,low,mask,partial viewing,few large,Stimulus\all_stim\occlusion\partialviewing\fewlarge\low\fewlarge_partialViewing_low_firehydrant5.png,mask_img/000000028698.png,experiment,e,e,671.5317788999819
V3,19,21,Male,Right,171,Block 2,1.3469456000020728,0.025,false,tree,bird,occlusion,low,mask,partial viewing,few large,Stimulus\all_stim\occlusion\partialviewing\fewlarge\low\fewlarge_partialViewing_low_tree7.png,mask_img/000000032906.png,experiment,r,u,674.1394000999862
V3,19,21,Male,Right,172,Block 2,0.8717558000062127,0.1,true,firehydrant,firehydrant,occlusion,control,mask,partial viewing,many small,Stimulus\all_stim\occlusion\partialviewing\manysmall\control\manysmall_partialViewing_control_firehydrant2.png,mask_img/000000039089.png,experiment,e,e,675.932123000006
V3,19,21,Male,Right,173,Block 2,0.699151000007987,0.05,true,firehydrant,firehydrant,occlusion,low,mask,partial viewing,many small,Stimulus\all_stim\occlusion\partialviewing\manysmall\low\manysmall_partialViewing_low_firehydrant6.png,mask_img/000000060647.png,experiment,e,e,677.4353539999865
V3,19,21,Male,Right,174,Block 2,0.9809752000146545,0.05,true,cat,cat,occlusion,control,mask,partial viewing,few large,Stimulus\all_stim\occlusion\partialviewing\fewlarge\control\fewlarge_partialViewing_control_cat6.png,mask_img/000000007179.png,experiment,w,w,679.3233293999801
V3,19,21,Male,Right,175,Block 2,1.2231048000103328,0.025,true,banana,banana,occlusion,low,mask,partial viewing,many small,Stimulus\all_stim\occlusion\partialviewing\manysmall\low\manysmall_partialViewing_low_banana4.png,mask_img/000000055202.png,experiment,i,i,681.5232984999893
V3,19,21,Male,Right,176,Block 2,0.8943386999890208,0.025,true,tree,tree,occlusion,control,mask,partial viewing,few large,Stimulus\all_stim\occlusion\partialviewing\fewlarge\control\fewlarge_partialViewing_control_tree9.png,mask_img/000000011701.png,experiment,u,u,683.2991648000025
V3,19,21,Male,Right,177,Block 2,1.0365530000126455,0.05,false,bird,banana,occlusion,low,mask,partial viewing,many small,Stimulus\all_stim\occlusion\partialviewing\manysmall\low\manysmall_partialViewing_low_bird5.png,mask_img/000000055942.png,experiment,i,r,685.0113735999912
V3,19,21,Male,Right,178,Block 2,1.5942052000027616,0.1,true,firehydrant,firehydrant,occlusion,control,mask,partial viewing,many small,Stimulus\all_stim\occlusion\partialviewing\manysmall\control\manysmall_partialViewing_control_firehydrant9.png,mask_img/000000039643.png,experiment,e,e,687.7394227999903
V3,19,21,Male,Right,179,Block 2,1.6404734999814536,0.025,false,cat,bird,occlusion,low,mask,partial viewing,many small,Stimulus\all_stim\occlusion\partialviewing\manysmall\low\manysmall_partialViewing_low_cat10.png,mask_img/000000059046.png,experiment,r,w,690.1793827999791
V3,19,21,Male,Right,180,Block 2,0.7936469000123907,0.05,false,banana,tree,occlusion,control,mask,partial viewing,few large,Stimulus\all_stim\occlusion\partialviewing\fewlarge\control\fewlarge_partialViewing_control_banana10.png,mask_img/000000000109.png,experiment,u,i,691.915267000004
V3,19,21,Male,Right,181,Block 2,1.261315999989165,0.05,false,bird,firehydrant,occlusion,low,mask,partial viewing,few large,Stimulus\all_stim\occlusion\partialviewing\fewlarge\low\fewlarge_partialViewing_low_bird4.png,mask_img/000000024193.png,experiment,e,r,694.0753010000044
V3,19,21,Male,Right,182,Block 2,0.5992202000052202,0.05,true,banana,banana,occlusion,low,mask,partial viewing,many small,Stimulus\all_stim\occlusion\partialviewing\manysmall\low\manysmall_partialViewing_low_banana1.png,mask_img/000000054532.png,experiment,i,i,695.6898705000058
V3,19,21,Male,Right,183,Block 2,0.7616733000031672,0.1,true,bus,bus,occlusion,control,mask,partial viewing,few large,Stimulus\all_stim\occlusion\partialviewing\fewlarge\control\fewlarge_partialViewing_control_bus2.png,mask_img/000000005359.png,experiment,p,p,697.531138899998
V3,19,21,Male,Right,184,Block 2,0.8585179999936372,0.025,true,bird,bird,occlusion,control,mask,partial viewing,many small,Stimulus\all_stim\occlusion\partialviewing\manysmall\control\manysmall_partialViewing_control_bird6.png,mask_img/000000034993.png,experiment,r,r,699.4038166999817
V3,19,21,Male,Right,185,Block 2,0.8212759000016376,0.1,false,building,banana,occlusion,high,mask,partial viewing,many small,Stimulus\all_stim\occlusion\partialviewing\manysmall\high\manysmall_partialViewing_high_building5.png,mask_img/000000046029.png,experiment,i,q,701.1158043000032
V3,19,21,Male,Right,186,Block 2,0.6197385999839753,0.05,true,building,building,occlusion,low,mask,partial viewing,many small,Stimulus\all_stim\occlusion\partialviewing\manysmall\low\manysmall_partialViewing_low_building9.png,mask_img/000000058102.png,experiment,q,q,702.4424899999867
V3,19,21,Male,Right,187,Block 2,0.6985875999962445,0.025,true,banana,banana,occlusion,control,mask,partial viewing,many small,Stimulus\all_stim\occlusion\partialviewing\manysmall\control\manysmall_partialViewing_control_banana9.png,mask_img/000000033955.png,experiment,i,i,703.9712325999863
V3,19,21,Male,Right,188,Block 2,2.2863297000003513,0.1,false,person,bird,occlusion,high,mask,partial viewing,many small,Stimulus\all_stim\occlusion\partialviewing\manysmall\high\manysmall_partialViewing_high_person1.png,mask_img/000000051310.png,experiment,r,o,707.3472557000059
V3,19,21,Male,Right,189,Block 2,0.6999632999941241,0.025,true,person,person,occlusion,low,mask,partial viewing,few large,Stimulus\all_stim\occlusion\partialviewing\fewlarge\low\fewlarge_partialViewing_low_person10.png,mask_img/000000029128.png,experiment,o,o,708.9071548999927
V3,19,21,Male,Right,190,Block 2,0.7673527000006288,0.1,true,building,building,occlusion,control,mask,partial viewing,few large,Stimulus\all_stim\occlusion\partialviewing\fewlarge\control\fewlarge_partialViewing_control_building3.png,mask_img/000000003694.png,experiment,q,q,710.427477499994
V3,19,21,Male,Right,191,Block 2,0.7353701000101864,0.05,true,bus,bus,occlusion,low,mask,partial viewing,many small,Stimulus\all_stim\occlusion\partialviewing\manysmall\low\manysmall_partialViewing_low_bus4.png,mask_img/000000058701.png,experiment,p,p,712.0112731999834
V3,19,21,Male,Right,192,Block 2,1.697803200018825,0.025,false,bird,bus,occlusion,high,mask,partial viewing,many small,Stimulus\all_stim\occlusion\partialviewing\manysmall\high\manysmall_partialViewing_high_bird5.png,mask_img/000000044437.png,experiment,p,r,714.4513582999934
V3,19,21,Male,Right,193,Block 2,0.6343586000148207,0.1,true,bus,bus,occlusion,high,mask,partial viewing,many small,Stimulus\all_stim\occlusion\partialviewing\manysmall\high\manysmall_partialViewing_high_bus9.png,mask_img/000000048268.png,experiment,p,p,716.0806295999791
V3,19,21,Male,Right,194,Block 2,0.7980102000001352,0.1,false,firehydrant,bus,occlusion,high,mask,partial viewing,many small,Stimulus\all_stim\occlusion\partialviewing\manysmall\high\manysmall_partialViewing_high_firehydrant6.png,mask_img/000000050782.png,experiment,p,e,717.8512308000063
V3,19,21,Male,Right,195,Block 2,0.8498399000091013,0.05,true,bird,bird,occlusion,control,mask,partial viewing,few large,Stimulus\all_stim\occlusion\partialviewing\fewlarge\control\fewlarge_partialViewing_control_bird6.png,mask_img/000000002337.png,experiment,r,r,719.6831975999812
V3,19,21,Male,Right,196,Block 2,1.0062208000163082,0.1,true,tree,tree,occlusion,high,mask,partial viewing,many small,Stimulus\all_stim\occlusion\partialviewing\manysmall\high\manysmall_partialViewing_high_tree7.png,mask_img/000000053635.png,experiment,u,u,721.6115802999993
V3,19,21,Male,Right,197,Block 2,0.7875964000122622,0.1,false,bird,tree,occlusion,high,mask,partial viewing,few large,Stimulus\all_stim\occlusion\partialviewing\fewlarge\high\fewlarge_partialViewing_high_bird3.png,mask_img/000000013455.png,experiment,u,r,723.3792336999904
V3,19,21,Male,Right,198,Block 2,0.8273485999961849,0.1,true,person,person,occlusion,high,mask,partial viewing,few large,Stimulus\all_stim\occlusion\partialviewing\fewlarge\high\fewlarge_partialViewing_high_person1.png,mask_img/000000019759.png,experiment,o,o,725.1391447999922
V3,19,21,Male,Right,199,Block 2,1.777402699983213,0.05,true,tree,tree,occlusion,control,mask,partial viewing,few large,Stimulus\all_stim\occlusion\partialviewing\fewlarge\control\fewlarge_partialViewing_control_tree10.png,mask_img/000000010414.png,experiment,u,u,727.9237448000058
V3,19,21,Male,Right,200,Block 2,0.8438581000082195,0.1,true,bird,bird,occlusion,low,mask,partial viewing,few large,Stimulus\all_stim\occlusion\partialviewing\fewlarge\low\fewlarge_partialViewing_low_bird9.png,mask_img/000000024530.png,experiment,r,r,729.4913893000048
V3,19,21,Male,Right,201,Block 2,0.7394820000045002,0.05,true,banana,banana,occlusion,low,mask,partial viewing,few large,Stimulus\all_stim\occlusion\partialviewing\fewlarge\low\fewlarge_partialViewing_low_banana8.png,mask_img/000000023656.png,experiment,i,i,731.3392969999986
V3,19,21,Male,Right,202,Block 2,0.7293751999968663,0.025,true,building,building,occlusion,low,mask,partial viewing,many small,Stimulus\all_stim\occlusion\partialviewing\manysmall\low\manysmall_partialViewing_low_building6.png,mask_img/000000057979.png,experiment,q,q,733.2112869999837
V3,19,21,Male,Right,203,Block 2,1.6634122999967076,0.025,true,firehydrant,firehydrant,occlusion,low,mask,partial viewing,few large,Stimulus\all_stim\occlusion\partialviewing\fewlarge\low\fewlarge_partialViewing_low_firehydrant9.png,mask_img/000000029056.png,experiment,e,e,735.7631730999856
V3,19,21,Male,Right,204,Block 2,1.1868470000044908,0.05,false,tree,firehydrant,occlusion,low,mask,partial viewing,many small,Stimulus\all_stim\occlusion\partialviewing\manysmall\low\manysmall_partialViewing_low_tree7.png,mask_img/000000063754.png,experiment,e,u,737.7473366000049
V3,19,21,Male,Right,205,Block 2,2.8439540000108536,0.025,false,firehydrant,banana,occlusion,low,mask,partial viewing,few large,Stimulus\all_stim\occlusion\partialviewing\fewlarge\low\fewlarge_partialViewing_low_firehydrant7.png,mask_img/000000028885.png,experiment,i,e,741.6753786999907
V3,19,21,Male,Right,206,Block 2,0.8405585000000428,0.1,true,cat,cat,occlusion,control,mask,partial viewing,few large,Stimulus\all_stim\occlusion\partialviewing\fewlarge\control\fewlarge_partialViewing_control_cat5.png,mask_img/000000006870.png,experiment,w,w,743.3800024999946
V3,19,21,Male,Right,207,Block 2,0.9483004999929108,0.1,true,banana,banana,occlusion,high,mask,partial viewing,many small,Stimulus\all_stim\occlusion\partialviewing\manysmall\high\manysmall_partialViewing_high_banana5.png,mask_img/000000042541.png,experiment,i,i,745.2835671000066
V3,19,21,Male,Right,208,Block 2,0.6966610999952536,0.1,true,cat,cat,occlusion,control,mask,partial viewing,few large,Stimulus\all_stim\occlusion\partialviewing\fewlarge\control\fewlarge_partialViewing_control_cat10.png,mask_img/000000006481.png,experiment,w,w,746.8671769000066
V3,19,21,Male,Right,209,Block 2,0.7278960999974515,0.025,true,tree,tree,occlusion,control,mask,partial viewing,few large,Stimulus\all_stim\occlusion\partialviewing\fewlarge\control\fewlarge_partialViewing_control_tree2.png,mask_img/000000010560.png,experiment,u,u,748.3170473999926
V3,19,21,Male,Right,210,Block 2,0.9018365999800153,0.025,false,cat,banana,occlusion,high,mask,partial viewing,few large,Stimulus\all_stim\occlusion\partialviewing\fewlarge\high\fewlarge_partialViewing_high_cat10.png,mask_img/000000017308.png,experiment,i,w,750.0911784000054
V3,19,21,Male,Right,211,Block 2,0.8220016999985091,0.05,false,banana,person,occlusion,high,mask,partial viewing,few large,Stimulus\all_stim\occlusion\partialviewing\fewlarge\high\fewlarge_partialViewing_high_banana6.png,mask_img/000000012548.png,experiment,o,i,751.6835710000014
V3,19,21,Male,Right,212,Block 2,1.8164893999928609,0.05,false,tree,banana,occlusion,low,mask,partial viewing,many small,Stimulus\all_stim\occlusion\partialviewing\manysmall\low\manysmall_partialViewing_low_tree5.png,mask_img/000000063482.png,experiment,i,u,754.411280100001
V3,19,21,Male,Right,213,Block 2,0.7153925000166055,0.025,true,building,building,occlusion,high,mask,partial viewing,few large,Stimulus\all_stim\occlusion\partialviewing\fewlarge\high\fewlarge_partialViewing_high_building8.png,mask_img/000000015366.png,experiment,q,q,756.0752619999985
V3,19,21,Male,Right,214,Block 2,0.7378518999903463,0.1,true,banana,banana,occlusion,control,mask,partial viewing,few large,Stimulus\all_stim\occlusion\partialviewing\fewlarge\control\fewlarge_partialViewing_control_banana10.png,mask_img/000000000109.png,experiment,i,i,757.5874515000032
V3,19,21,Male,Right,215,Block 2,1.584521999990102,0.05,true,firehydrant,firehydrant,occlusion,high,mask,partial viewing,few large,Stimulus\all_stim\occlusion\partialviewing\fewlarge\high\fewlarge_partialViewing_high_firehydrant8.png,mask_img/000000019528.png,experiment,e,e,760.2512318999798
V3,19,21,Male,Right,216,Block 2,0.677085100003751,0.05,true,firehydrant,firehydrant,occlusion,low,mask,partial viewing,many small,Stimulus\all_stim\occlusion\partialviewing\manysmall\low\manysmall_partialViewing_low_firehydrant5.png,mask_img/000000060623.png,experiment,e,e,761.7710798000044
V3,19,21,Male,Right,217,Block 2,0.7589252999750897,0.025,true,banana,banana,occlusion,high,mask,partial viewing,few large,Stimulus\all_stim\occlusion\partialviewing\fewlarge\high\fewlarge_partialViewing_high_banana4.png,mask_img/000000012377.png,experiment,i,i,763.4994047000073
V3,19,21,Male,Right,218,Block 2,2.5050669999909587,0.1,true,firehydrant,firehydrant,occlusion,control,mask,partial viewing,few large,Stimulus\all_stim\occlusion\partialviewing\fewlarge\control\fewlarge_partialViewing_control_firehydrant6.png,mask_img/000000008025.png,experiment,e,e,767.0521539000038
V3,19,21,Male,Right,219,Block 2,0.7134217999991961,0.025,true,cat,cat,occlusion,low,mask,partial viewing,few large,Stimulus\all_stim\occlusion\partialviewing\fewlarge\low\fewlarge_partialViewing_low_cat6.png,mask_img/000000027764.png,experiment,w,w,768.5871270000061
V3,19,21,Male,Right,220,Block 2,0.9861021999968216,0.025,true,banana,banana,occlusion,low,mask,partial viewing,many small,Stimulus\all_stim\occlusion\partialviewing\manysmall\low\manysmall_partialViewing_low_banana10.png,mask_img/000000054723.png,experiment,i,i,770.6752198000031
V3,19,21,Male,Right,221,Block 2,2.2379734000132885,0.05,false,firehydrant,bird,occlusion,high,mask,partial viewing,few large,Stimulus\all_stim\occlusion\partialviewing\fewlarge\high\fewlarge_partialViewing_high_firehydrant5.png,mask_img/000000018982.png,experiment,r,e,773.8516220999882
V3,19,21,Male,Right,222,Block 2,4.541436800005613,0.1,false,bird,tree,occlusion,high,mask,partial viewing,few large,Stimulus\all_stim\occlusion\partialviewing\fewlarge\high\fewlarge_partialViewing_high_bird8.png,mask_img/000000014168.png,experiment,u,r,779.1636400999851
V3,19,21,Male,Right,223,Block 2,0.9614840000285767,0.05,true,building,building,occlusion,low,mask,partial viewing,few large,Stimulus\all_stim\occlusion\partialviewing\fewlarge\low\fewlarge_partialViewing_low_building2.png,mask_img/000000024702.png,experiment,q,q,780.955198599986
V3,19,21,Male,Right,224,Block 2,0.8653385000070557,0.025,false,bird,firehydrant,occlusion,low,mask,partial viewing,few large,Stimulus\all_stim\occlusion\partialviewing\fewlarge\low\fewlarge_partialViewing_low_bird1.png,mask_img/000000023984.png,experiment,e,r,782.7874365999887
V3,19,21,Male,Right,225,Block 2,0.7590960999950767,0.05,true,cat,cat,occlusion,control,mask,partial viewing,few large,Stimulus\all_stim\occlusion\partialviewing\fewlarge\control\fewlarge_partialViewing_control_cat5.png,mask_img/000000006870.png,experiment,w,w,784.4593142999802
V3,19,21,Male,Right,226,Block 2,0.7218038999999408,0.05,true,bird,bird,occlusion,control,mask,partial viewing,many small,Stimulus\all_stim\occlusion\partialviewing\manysmall\control\manysmall_partialViewing_control_bird3.png,mask_img/000000034570.png,experiment,r,r,786.1718906000024
V3,19,21,Male,Right,227,Block 2,0.617833000025712,0.025,true,building,building,occlusion,low,mask,partial viewing,many small,Stimulus\all_stim\occlusion\partialviewing\manysmall\low\manysmall_partialViewing_low_building1.png,mask_img/000000056716.png,experiment,q,q,787.9393915999972
V3,19,21,Male,Right,228,Block 2,0.9821761999919545,0.025,false,firehydrant,building,occlusion,high,mask,partial viewing,many small,Stimulus\all_stim\occlusion\partialviewing\manysmall\high\manysmall_partialViewing_high_firehydrant4.png,mask_img/000000050412.png,experiment,q,e,789.7312301000056
V3,19,21,Male,Right,229,Block 2,1.3928996000031475,0.025,true,banana,banana,occlusion,control,mask,partial viewing,many small,Stimulus\all_stim\occlusion\partialviewing\manysmall\control\manysmall_partialViewing_control_banana6.png,mask_img/000000033756.png,experiment,i,i,791.8113727000018
V3,19,21,Male,Right,230,Block 2,1.3726224999991246,0.025,true,firehydrant,firehydrant,occlusion,control,mask,partial viewing,many small,Stimulus\all_stim\occlusion\partialviewing\manysmall\control\manysmall_partialViewing_control_firehydrant9.png,mask_img/000000039643.png,experiment,e,e,794.1873514000035
V3,19,21,Male,Right,231,Block 2,0.8061333000077866,0.05,true,bus,bus,occlusion,control,mask,partial viewing,few large,Stimulus\all_stim\occlusion\partialviewing\fewlarge\control\fewlarge_partialViewing_control_bus8.png,mask_img/000000006153.png,experiment,p,p,796.0912664000061
V3,19,21,Male,Right,232,Block 2,0.675931000005221,0.025,false,bus,bird,occlusion,low,mask,partial viewing,few large,Stimulus\all_stim\occlusion\partialviewing\fewlarge\low\fewlarge_partialViewing_low_bus10.png,mask_img/000000025855.png,experiment,r,p,797.6512531999906
V3,19,21,Male,Right,233,Block 2,0.8231967999890912,0.1,true,bird,bird,occlusion,high,mask,partial viewing,few large,Stimulus\all_stim\occlusion\partialviewing\fewlarge\high\fewlarge_partialViewing_high_bird10.png,mask_img/000000013127.png,experiment,r,r,799.4531675000035
V3,19,21,Male,Right,234,Block 2,1.2119655999995302,0.1,true,building,building,occlusion,low,mask,partial viewing,many small,Stimulus\all_stim\occlusion\partialviewing\manysmall\low\manysmall_partialViewing_low_building7.png,mask_img/000000058021.png,experiment,q,q,801.7714379999961
V3,19,21,Male,Right,235,Block 2,0.4613085999735631,0.1,true,bus,bus,occlusion,high,mask,partial viewing,many small,Stimulus\all_stim\occlusion\partialviewing\manysmall\high\manysmall_partialViewing_high_bus2.png,mask_img/000000046852.png,experiment,p,p,803.247933000006
V3,19,21,Male,Right,236,Block 2,0.6639166000240948,0.05,true,firehydrant,firehydrant,occlusion,high,mask,partial viewing,few large,Stimulus\all_stim\occlusion\partialviewing\fewlarge\high\fewlarge_partialViewing_high_firehydrant3.png,mask_img/000000018864.png,experiment,e,e,804.7711388999887
V3,19,21,Male,Right,237,Block 2,2.0959245999983978,0.05,false,tree,cat,occlusion,high,mask,partial viewing,many small,Stimulus\all_stim\occlusion\partialviewing\manysmall\high\manysmall_partialViewing_high_tree8.png,mask_img/000000054334.png,experiment,w,u,807.6193166000012
V3,19,21,Male,Right,238,Block 2,0.9390621999918949,0.05,false,firehydrant,cat,occlusion,low,mask,partial viewing,many small,Stimulus\all_stim\occlusion\partialviewing\manysmall\low\manysmall_partialViewing_low_firehydrant2.png,mask_img/000000060548.png,experiment,w,e,809.2433245999855
V3,19,21,Male,Right,239,Block 2,0.7307529000099748,0.1,true,banana,banana,occlusion,control,mask,partial viewing,many small,Stimulus\all_stim\occlusion\partialviewing\manysmall\control\manysmall_partialViewing_control_banana5.png,mask_img/000000033669.png,experiment,i,i,811.0437548999907
V3,19,21,Male,Right,240,Block 2,1.0584090999909677,0.05,true,building,building,occlusion,control,mask,partial viewing,few large,Stimulus\all_stim\occlusion\partialviewing\fewlarge\control\fewlarge_partialViewing_control_building3.png,mask_img/000000003694.png,experiment,q,q,812.8035471999901
V3,19,21,Male,Right,241,Block 2,0.7063916000188328,0.05,true,bus,bus,occlusion,control,mask,partial viewing,many small,Stimulus\all_stim\occlusion\partialviewing\manysmall\control\manysmall_partialViewing_control_bus9.png,mask_img/000000037864.png,experiment,p,p,814.4112215999921
V3,19,21,Male,Right,242,Block 2,0.7838581999822054,0.05,false,cat,banana,occlusion,low,mask,partial viewing,many small,Stimulus\all_stim\occlusion\partialviewing\manysmall\low\manysmall_partialViewing_low_cat8.png,mask_img/000000060245.png,experiment,i,w,816.2353232000023
V3,19,21,Male,Right,243,Block 2,0.589618599973619,0.05,true,building,building,occlusion,control,mask,partial viewing,few large,Stimulus\all_stim\occlusion\partialviewing\fewlarge\control\fewlarge_partialViewing_control_building7.png,mask_img/000000004936.png,experiment,q,q,817.6366806000005
V3,19,21,Male,Right,244,Block 2,1.3603298000234645,0.1,true,bus,bus,occlusion,control,mask,partial viewing,few large,Stimulus\all_stim\occlusion\partialviewing\fewlarge\control\fewlarge_partialViewing_control_bus4.png,mask_img/000000005574.png,experiment,p,p,819.9074819999805
V3,19,21,Male,Right,245,Block 2,0.7761590000009164,0.05,true,cat,cat,occlusion,control,mask,partial viewing,few large,Stimulus\all_stim\occlusion\partialviewing\fewlarge\control\fewlarge_partialViewing_control_cat7.png,mask_img/000000007325.png,experiment,w,w,821.7874295999936
V3,19,21,Male,Right,246,Block 2,0.9012868999852799,0.025,true,tree,tree,occlusion,control,mask,partial viewing,many small,Stimulus\all_stim\occlusion\partialviewing\manysmall\control\manysmall_partialViewing_control_tree10.png,mask_img/000000040948.png,experiment,u,u,823.5953672000032
V3,19,21,Male,Right,247,Block 2,0.8668050999986008,0.1,true,banana,banana,occlusion,high,mask,partial viewing,few large,Stimulus\all_stim\occlusion\partialviewing\fewlarge\high\fewlarge_partialViewing_high_banana5.png,mask_img/000000012543.png,experiment,i,i,825.3153922999918
V3,19,21,Male,Right,248,Block 2,1.0884256999997888,0.1,false,firehydrant,bird,occlusion,low,mask,partial viewing,many small,Stimulus\all_stim\occlusion\partialviewing\manysmall\low\manysmall_partialViewing_low_firehydrant1.png,mask_img/000000060464.png,experiment,r,e,827.1791706999938
V3,19,21,Male,Right,249,Block 2,0.6156996999925468,0.1,true,tree,tree,occlusion,control,mask,partial viewing,few large,Stimulus\all_stim\occlusion\partialviewing\fewlarge\control\fewlarge_partialViewing_control_tree9.png,mask_img/000000011701.png,experiment,u,u,828.7726757999917
V3,19,21,Male,Right,250,Block 2,0.8900555000000168,0.1,false,firehydrant,cat,occlusion,low,mask,partial viewing,few large,Stimulus\all_stim\occlusion\partialviewing\fewlarge\low\fewlarge_partialViewing_low_firehydrant8.png,mask_img/000000028988.png,experiment,w,e,830.6199747000064
V3,19,21,Male,Right,251,Block 2,0.9519352999923285,0.025,false,tree,firehydrant,occlusion,low,mask,partial viewing,few large,Stimulus\all_stim\occlusion\partialviewing\fewlarge\low\fewlarge_partialViewing_low_tree8.png,mask_img/000000032918.png,experiment,e,u,832.5172052999842
V3,19,21,Male,Right,252,Block 2,1.1040248000063002,0.025,true,building,building,occlusion,low,mask,partial viewing,few large,Stimulus\all_stim\occlusion\partialviewing\fewlarge\low\fewlarge_partialViewing_low_building5.png,mask_img/000000025034.png,experiment,q,q,834.6115817999816
V3,19,21,Male,Right,253,Block 2,0.9495495999872219,0.05,false,firehydrant,bird,occlusion,low,mask,partial viewing,many small,Stimulus\all_stim\occlusion\partialviewing\manysmall\low\manysmall_partialViewing_low_firehydrant1.png,mask_img/000000060464.png,experiment,r,e,836.4353868000035
V3,19,21,Male,Right,254,Block 2,1.1123516000225209,0.025,true,bird,bird,occlusion,high,mask,partial viewing,few large,Stimulus\all_stim\occlusion\partialviewing\fewlarge\high\fewlarge_partialViewing_high_bird3.png,mask_img/000000013455.png,experiment,r,r,838.2992245999922
V3,19,21,Male,Right,255,Block 2,0.9260123000130989,0.025,false,building,firehydrant,occlusion,high,mask,partial viewing,many small,Stimulus\all_stim\occlusion\partialviewing\manysmall\high\manysmall_partialViewing_high_building5.png,mask_img/000000046029.png,experiment,e,q,840.0114085999958
V3,19,21,Male,Right,256,Block 2,1.03990539998631,0.05,true,person,person,occlusion,high,mask,partial viewing,few large,Stimulus\all_stim\occlusion\partialviewing\fewlarge\high\fewlarge_partialViewing_high_person6.png,mask_img/000000020392.png,experiment,o,o,841.8593422999838
V3,19,21,Male,Right,257,Block 2,1.5339982000004966,0.1,true,building,building,occlusion,high,mask,partial viewing,few large,Stimulus\all_stim\occlusion\partialviewing\fewlarge\high\fewlarge_partialViewing_high_building4.png,mask_img/000000014592.png,experiment,q,q,844.4274677999783
V3,19,21,Male,Right,258,Block 2,1.417400499980431,0.05,true,banana,banana,occlusion,high,mask,partial viewing,few large,Stimulus\all_stim\occlusion\partialviewing\fewlarge\high\fewlarge_partialViewing_high_banana10.png,mask_img/000000012178.png,experiment,i,i,846.9474218999967
V3,19,21,Male,Right,259,Block 2,1.5012679999927059,0.1,true,building,building,occlusion,control,mask,partial viewing,few large,Stimulus\all_stim\occlusion\partialviewing\fewlarge\control\fewlarge_partialViewing_control_building2.png,mask_img/000000003483.png,experiment,q,q,849.2755064999801
V3,19,21,Male,Right,260,Block 2,2.1989083999942522,0.05,false,tree,banana,occlusion,high,mask,partial viewing,many small,Stimulus\all_stim\occlusion\partialviewing\manysmall\high\manysmall_partialViewing_high_tree6.png,mask_img/000000053539.png,experiment,i,u,852.6181504999986
V3,19,21,Male,Right,261,Block 2,1.4460938000120223,0.1,true,firehydrant,firehydrant,occlusion,high,mask,partial viewing,few large,Stimulus\all_stim\occlusion\partialviewing\fewlarge\high\fewlarge_partialViewing_high_firehydrant10.png,mask_img/000000018441.png,experiment,e,e,854.7951551000006
V3,19,21,Male,Right,262,Block 2,0.834495799994329,0.1,true,banana,banana,occlusion,high,mask,partial viewing,few large,Stimulus\all_stim\occlusion\partialviewing\fewlarge\high\fewlarge_partialViewing_high_banana4.png,mask_img/000000012377.png,experiment,i,i,856.6753153000027
V3,19,21,Male,Right,263,Block 2,0.9842757000005804,0.05,true,bird,bird,occlusion,low,mask,partial viewing,many small,Stimulus\all_stim\occlusion\partialviewing\manysmall\low\manysmall_partialViewing_low_bird3.png,mask_img/000000055849.png,experiment,r,r,858.483286600007
V3,19,21,Male,Right,264,Block 2,1.0391214999835938,0.025,true,person,person,occlusion,control,mask,partial viewing,few large,Stimulus\all_stim\occlusion\partialviewing\fewlarge\control\fewlarge_partialViewing_control_person1.png,mask_img/000000008341.png,experiment,o,o,860.507271999988
V3,19,21,Male,Right,265,Block 2,1.0211693000164814,0.05,false,cat,person,occlusion,low,mask,partial viewing,many small,Stimulus\all_stim\occlusion\partialviewing\manysmall\low\manysmall_partialViewing_low_cat1.png,mask_img/000000059036.png,experiment,o,w,862.5152621000016
V3,19,21,Male,Right,266,Block 2,1.0964518999971915,0.025,true,banana,banana,occlusion,control,mask,partial viewing,few large,Stimulus\all_stim\occlusion\partialviewing\fewlarge\control\fewlarge_partialViewing_control_banana6.png,mask_img/000000000595.png,experiment,i,i,864.371742599993
V3,19,21,Male,Right,267,Block 2,1.2632799999846611,0.05,false,cat,bird,occlusion,low,mask,partial viewing,few large,Stimulus\all_stim\occlusion\partialviewing\fewlarge\low\fewlarge_partialViewing_low_cat3.png,mask_img/000000027556.png,experiment,r,w,866.7152200999844
V3,19,21,Male,Right,268,Block 2,0.7210209999757353,0.025,true,tree,tree,occlusion,control,mask,partial viewing,many small,Stimulus\all_stim\occlusion\partialviewing\manysmall\control\manysmall_partialViewing_control_tree7.png,mask_img/000000041434.png,experiment,u,u,868.2355769999849
V3,19,21,Male,Right,269,Block 2,1.4241081000072882,0.1,true,cat,cat,occlusion,low,mask,partial viewing,few large,Stimulus\all_stim\occlusion\partialviewing\fewlarge\low\fewlarge_partialViewing_low_cat3.png,mask_img/000000027556.png,experiment,w,w,870.4274906000064
V3,19,21,Male,Right,270,Block 2,0.882630700012669,0.025,true,person,person,occlusion,control,mask,partial viewing,many small,Stimulus\all_stim\occlusion\partialviewing\manysmall\control\manysmall_partialViewing_control_person7.png,mask_img/000000040399.png,experiment,o,o,872.4036689999921
V3,19,21,Male,Right,271,Block 2,0.7780824999790639,0.05,true,person,person,occlusion,high,mask,partial viewing,many small,Stimulus\all_stim\occlusion\partialviewing\manysmall\high\manysmall_partialViewing_high_person1.png,mask_img/000000051310.png,experiment,o,o,873.9714077999815
V3,19,21,Male,Right,272,Block 2,0.6969692999846302,0.025,true,tree,tree,occlusion,control,mask,partial viewing,many small,Stimulus\all_stim\occlusion\partialviewing\manysmall\control\manysmall_partialViewing_control_tree3.png,mask_img/000000041014.png,experiment,u,u,875.531683499983
V3,19,21,Male,Right,273,Block 2,0.8691143000032753,0.1,false,tree,banana,occlusion,high,mask,partial viewing,many small,Stimulus\all_stim\occlusion\partialviewing\manysmall\high\manysmall_partialViewing_high_tree2.png,mask_img/000000052901.png,experiment,i,u,877.2752547999844
V3,19,21,Male,Right,274,Block 2,0.7435768000141252,0.025,true,tree,tree,occlusion,high,mask,partial viewing,few large,Stimulus\all_stim\occlusion\partialviewing\fewlarge\high\fewlarge_partialViewing_high_tree9.png,mask_img/000000022440.png,experiment,u,u,878.9790944999841
V3,19,21,Male,Right,275,Block 2,1.0596501000109129,0.1,true,building,building,occlusion,control,mask,partial viewing,many small,Stimulus\all_stim\occlusion\partialviewing\manysmall\control\manysmall_partialViewing_control_building3.png,mask_img/000000035979.png,experiment,q,q,880.8435744000017
V3,19,21,Male,Right,276,Block 2,0.7817385000234935,0.05,true,bird,bird,occlusion,low,mask,partial viewing,few large,Stimulus\all_stim\occlusion\partialviewing\fewlarge\low\fewlarge_partialViewing_low_bird8.png,mask_img/000000024404.png,experiment,r,r,882.723277299985
V3,19,21,Male,Right,277,Block 2,0.7629314000078011,0.025,true,bus,bus,occlusion,control,mask,partial viewing,many small,Stimulus\all_stim\occlusion\partialviewing\manysmall\control\manysmall_partialViewing_control_bus2.png,mask_img/000000036622.png,experiment,p,p,884.5311983999854
V3,19,21,Male,Right,278,Block 2,1.030790299992077,0.1,false,tree,bird,occlusion,low,mask,partial viewing,many small,Stimulus\all_stim\occlusion\partialviewing\manysmall\low\manysmall_partialViewing_low_tree6.png,mask_img/000000063715.png,experiment,r,u,886.5235392999894
V3,19,21,Male,Right,279,Block 2,0.9852367000130471,0.1,true,banana,banana,occlusion,low,mask,partial viewing,many small,Stimulus\all_stim\occlusion\partialviewing\manysmall\low\manysmall_partialViewing_low_banana5.png,mask_img/000000055388.png,experiment,i,i,888.1952055000002
V3,19,21,Male,Right,280,Block 2,4.2568737999827135,0.025,false,cat,tree,occlusion,control,mask,partial viewing,few large,Stimulus\all_stim\occlusion\partialviewing\fewlarge\control\fewlarge_partialViewing_control_cat10.png,mask_img/000000006481.png,experiment,u,w,893.1163310999982
V3,19,21,Male,Right,281,Block 2,1.3617087000166066,0.025,true,bird,bird,occlusion,control,mask,partial viewing,many small,Stimulus\all_stim\occlusion\partialviewing\manysmall\control\manysmall_partialViewing_control_bird9.png,mask_img/000000035514.png,experiment,r,r,895.5874965999974
V3,19,21,Male,Right,282,Block 2,0.8381225000193808,0.05,true,building,building,occlusion,control,mask,partial viewing,few large,Stimulus\all_stim\occlusion\partialviewing\fewlarge\control\fewlarge_partialViewing_control_building1.png,mask_img/000000003084.png,experiment,q,q,897.1232182999956
V3,19,21,Male,Right,283,Block 2,0.7258985999797005,0.1,true,tree,tree,occlusion,high,mask,partial viewing,few large,Stimulus\all_stim\occlusion\partialviewing\fewlarge\high\fewlarge_partialViewing_high_tree4.png,mask_img/000000021981.png,experiment,u,u,898.9311750000052
V3,19,21,Male,Right,284,Block 2,0.8737785999837797,0.025,true,bird,bird,occlusion,low,mask,partial viewing,few large,Stimulus\all_stim\occlusion\partialviewing\fewlarge\low\fewlarge_partialViewing_low_bird3.png,mask_img/000000024157.png,experiment,r,r,900.6433648999955
V3,19,21,Male,Right,285,Block 2,0.6867471000005025,0.025,false,banana,tree,occlusion,low,mask,partial viewing,many small,Stimulus\all_stim\occlusion\partialviewing\manysmall\low\manysmall_partialViewing_low_banana7.png,mask_img/000000055594.png,experiment,u,i,902.1391777999816
V3,19,21,Male,Right,286,Block 2,0.6343145999999251,0.1,false,tree,bird,occlusion,low,mask,partial viewing,few large,Stimulus\all_stim\occlusion\partialviewing\fewlarge\low\fewlarge_partialViewing_low_tree9.png,mask_img/000000032965.png,experiment,r,u,903.901085599995
V3,19,21,Male,Right,287,Block 2,1.6660780000092927,0.1,true,bird,bird,occlusion,control,mask,partial viewing,few large,Stimulus\all_stim\occlusion\partialviewing\fewlarge\control\fewlarge_partialViewing_control_bird9.png,mask_img/000000002892.png,experiment,r,r,906.5872485
V3,19,21,Male,Right,288,Block 2,0.8623165000171866,0.05,true,person,person,occlusion,control,mask,partial viewing,few large,Stimulus\all_stim\occlusion\partialviewing\fewlarge\control\fewlarge_partialViewing_control_person9.png,mask_img/000000009809.png,experiment,o,o,978.9075502000051
V3,19,21,Male,Right,289,Block 3,1.033648299984634,0.025,true,building,building,occlusion,high,mask,partial viewing,many small,Stimulus\all_stim\occlusion\partialviewing\manysmall\high\manysmall_partialViewing_high_building8.png,mask_img/000000046245.png,experiment,q,q,980.9396113999828
V3,19,21,Male,Right,290,Block 3,0.5628896999987774,0.05,true,building,building,occlusion,control,mask,partial viewing,few large,Stimulus\all_stim\occlusion\partialviewing\fewlarge\control\fewlarge_partialViewing_control_building6.png,mask_img/000000004739.png,experiment,q,q,982.2618946000002
V3,19,21,Male,Right,291,Block 3,0.6312096000183374,0.025,true,person,person,occlusion,control,mask,partial viewing,few large,Stimulus\all_stim\occlusion\partialviewing\fewlarge\control\fewlarge_partialViewing_control_person5.png,mask_img/000000009286.png,experiment,o,o,983.7871945999796
V3,19,21,Male,Right,292,Block 3,1.3391048000194132,0.1,true,firehydrant,firehydrant,occlusion,control,mask,partial viewing,few large,Stimulus\all_stim\occlusion\partialviewing\fewlarge\control\fewlarge_partialViewing_control_firehydrant1.png,mask_img/000000007740.png,experiment,e,e,985.979677700001
V3,19,21,Male,Right,293,Block 3,0.8413638999918476,0.05,true,tree,tree,occlusion,high,mask,partial viewing,few large,Stimulus\all_stim\occlusion\partialviewing\fewlarge\high\fewlarge_partialViewing_high_tree6.png,mask_img/000000022142.png,experiment,u,u,987.7313954999845
V3,19,21,Male,Right,294,Block 3,0.5077685999858659,0.1,true,tree,tree,occlusion,control,mask,partial viewing,few large,Stimulus\all_stim\occlusion\partialviewing\fewlarge\control\fewlarge_partialViewing_control_tree3.png,mask_img/000000010566.png,experiment,u,u,989.1810611999827
V3,19,21,Male,Right,295,Block 3,0.8654657000151929,0.025,true,bus,bus,occlusion,high,mask,partial viewing,few large,Stimulus\all_stim\occlusion\partialviewing\fewlarge\high\fewlarge_partialViewing_high_bus1.png,mask_img/000000015645.png,experiment,p,p,990.7636494000035
V3,19,21,Male,Right,296,Block 3,1.7402035999984946,0.1,true,bird,bird,occlusion,high,mask,partial viewing,many small,Stimulus\all_stim\occlusion\partialviewing\manysmall\high\manysmall_partialViewing_high_bird5.png,mask_img/000000044437.png,experiment,r,r,993.4594224999892
V3,19,21,Male,Right,297,Block 3,0.7692600000009406,0.025,true,firehydrant,firehydrant,occlusion,low,mask,partial viewing,few large,Stimulus\all_stim\occlusion\partialviewing\fewlarge\low\fewlarge_partialViewing_low_firehydrant5.png,mask_img/000000028698.png,experiment,e,e,995.3474405999877
V3,19,21,Male,Right,298,Block 3,0.8643336000095587,0.1,true,cat,cat,occlusion,control,mask,partial viewing,many small,Stimulus\all_stim\occlusion\partialviewing\manysmall\control\manysmall_partialViewing_control_cat8.png,mask_img/000000038817.png,experiment,w,w,997.115727700002
V3,19,21,Male,Right,299,Block 3,0.7357984000118449,0.025,true,bus,bus,occlusion,low,mask,partial viewing,many small,Stimulus\all_stim\occlusion\partialviewing\manysmall\low\manysmall_partialViewing_low_bus4.png,mask_img/000000058701.png,experiment,p,p,998.9074812000035
V3,19,21,Male,Right,300,Block 3,0.5993757999967784,0.05,true,building,building,occlusion,low,mask,partial viewing,few large,Stimulus\all_stim\occlusion\partialviewing\fewlarge\low\fewlarge_partialViewing_low_building4.png,mask_img/000000024912.png,experiment,q,q,1000.5073901999858
V3,19,21,Male,Right,301,Block 3,0.7591935000091325,0.1,true,firehydrant,firehydrant,occlusion,high,mask,partial viewing,few large,Stimulus\all_stim\occlusion\partialviewing\fewlarge\high\fewlarge_partialViewing_high_firehydrant2.png,mask_img/000000018743.png,experiment,e,e,1002.0913882000023
V3,19,21,Male,Right,302,Block 3,0.8321749000169802,0.1,true,banana,banana,occlusion,low,mask,partial viewing,many small,Stimulus\all_stim\occlusion\partialviewing\manysmall\low\manysmall_partialViewing_low_banana4.png,mask_img/000000055202.png,experiment,i,i,1003.6676475999993
V3,19,21,Male,Right,303,Block 3,0.6808529999980237,0.1,true,tree,tree,occlusion,high,mask,partial viewing,many small,Stimulus\all_stim\occlusion\partialviewing\manysmall\high\manysmall_partialViewing_high_tree6.png,mask_img/000000053539.png,experiment,u,u,1005.2514813999878
V3,19,21,Male,Right,304,Block 3,1.2034621000057086,0.1,true,bird,bird,occlusion,control,mask,partial viewing,few large,Stimulus\all_stim\occlusion\partialviewing\fewlarge\control\fewlarge_partialViewing_control_bird4.png,mask_img/000000001997.png,experiment,r,r,1007.6039639999799
V3,19,21,Male,Right,305,Block 3,0.8720019000174943,0.1,true,person,person,occlusion,high,mask,partial viewing,many small,Stimulus\all_stim\occlusion\partialviewing\manysmall\high\manysmall_partialViewing_high_person3.png,mask_img/000000051880.png,experiment,o,o,1009.5153802999994
V3,19,21,Male,Right,306,Block 3,0.7052794999908656,0.05,true,building,building,occlusion,control,mask,partial viewing,many small,Stimulus\all_stim\occlusion\partialviewing\manysmall\control\manysmall_partialViewing_control_building3.png,mask_img/000000035979.png,experiment,q,q,1010.9475857999932
V3,19,21,Male,Right,307,Block 3,0.690020399983041,0.05,true,building,building,occlusion,high,mask,partial viewing,many small,Stimulus\all_stim\occlusion\partialviewing\manysmall\high\manysmall_partialViewing_high_building7.png,mask_img/000000046171.png,experiment,q,q,1012.4112488999963
V3,19,21,Male,Right,308,Block 3,2.8306942000053823,0.1,false,building,tree,occlusion,high,mask,partial viewing,many small,Stimulus\all_stim\occlusion\partialviewing\manysmall\high\manysmall_partialViewing_high_building4.png,mask_img/000000046025.png,experiment,u,q,1016.3093725999934
V3,19,21,Male,Right,309,Block 3,0.8605460000107996,0.05,true,cat,cat,occlusion,control,mask,partial viewing,many small,Stimulus\all_stim\occlusion\partialviewing\manysmall\control\manysmall_partialViewing_control_cat7.png,mask_img/000000038798.png,experiment,w,w,1017.8756984999927
V3,19,21,Male,Right,310,Block 3,0.7834333000064362,0.1,true,bus,bus,occlusion,high,mask,partial viewing,many small,Stimulus\all_stim\occlusion\partialviewing\manysmall\high\manysmall_partialViewing_high_bus4.png,mask_img/000000047316.png,experiment,p,p,1019.6433465000009
V3,19,21,Male,Right,311,Block 3,0.6133241000061389,0.05,true,bus,bus,occlusion,low,mask,partial viewing,many small,Stimulus\all_stim\occlusion\partialviewing\manysmall\low\manysmall_partialViewing_low_bus5.png,mask_img/000000058801.png,experiment,p,p,1021.2755303999875
V3,19,21,Male,Right,312,Block 3,0.7726069999916945,0.025,true,building,building,occlusion,control,mask,partial viewing,few large,Stimulus\all_stim\occlusion\partialviewing\fewlarge\control\fewlarge_partialViewing_control_building6.png,mask_img/000000004739.png,experiment,q,q,1022.8352784999879
V3,19,21,Male,Right,313,Block 3,0.6800041999958921,0.05,true,person,person,occlusion,low,mask,partial viewing,many small,Stimulus\all_stim\occlusion\partialviewing\manysmall\low\manysmall_partialViewing_low_person4.png,mask_img/000000062131.png,experiment,o,o,1024.3394415999937
V3,19,21,Male,Right,314,Block 3,3.4734708000032697,0.1,true,tree,tree,occlusion,control,mask,partial viewing,many small,Stimulus\all_stim\occlusion\partialviewing\manysmall\control\manysmall_partialViewing_control_tree4.png,mask_img/000000041022.png,experiment,u,u,1028.6674876000034
V3,19,21,Male,Right,315,Block 3,1.2130427999945823,0.05,true,banana,banana,occlusion,low,mask,partial viewing,few large,Stimulus\all_stim\occlusion\partialviewing\fewlarge\low\fewlarge_partialViewing_low_banana6.png,mask_img/000000023137.png,experiment,i,i,1030.9394368999929
V3,19,21,Male,Right,316,Block 3,1.0109850999724586,0.025,true,building,building,occlusion,high,mask,partial viewing,few large,Stimulus\all_stim\occlusion\partialviewing\fewlarge\high\fewlarge_partialViewing_high_building2.png,mask_img/000000014472.png,experiment,q,q,1032.627854499995
V3,19,21,Male,Right,317,Block 3,1.1130839999823365,0.1,true,firehydrant,firehydrant,occlusion,low,mask,partial viewing,many small,Stimulus\all_stim\occlusion\partialviewing\manysmall\low\manysmall_partialViewing_low_firehydrant10.png,mask_img/000000060529.png,experiment,e,e,1034.819312799984
