Version,pt_num,Age,Gender,Handedness,trial_nbr,block_number,rt,soa,acc,category,choiced_category,manipulation,difficulty,mask,type_occl,size_occl,filename,mask_filename,task,pressed_key,correct_key,Experiment Duration
V3,30,26,Male,Right,1,Training,1.3507784999674186,0.1,true,bus,bus,occlusion,control,mask,partial viewing,few large,Training_Stimulus\fewlarge_partialViewing_control_bus180.png,mask_img/000000000394.png,training,q,q,139.88638709997758
V3,30,26,Male,Right,2,Training,2.2221666000550613,0.025,true,banana,banana,occlusion,low,mask,partial viewing,few large,Training_Stimulus\fewlarge_partialViewing_low_banana454.png,mask_img/000000002337.png,training,r,r,143.30632470001
V3,30,26,Male,Right,3,Training,3.4018494999036193,0.025,false,person,bird,occlusion,low,mask,partial viewing,many small,Training_Stimulus\manysmall_partialViewing_low_person189.png,mask_img/000000007179.png,training,o,p,148.2437607999891
V3,30,26,Male,Right,4,Training,5.07338489999529,0.025,false,bus,tree,occlusion,high,mask,partial viewing,many small,Training_Stimulus\manysmall_partialViewing_high_bus180.png,mask_img/000000005615.png,training,e,q,154.6345073999837
V3,30,26,Male,Right,5,Training,3.440384400077164,0.1,true,cat,cat,occlusion,high,mask,partial viewing,many small,Training_Stimulus\manysmall_partialViewing_high_cat432.png,mask_img/000000005862.png,training,u,u,159.26804029999766
V3,30,26,Male,Right,6,Training,1.6008066999493167,0.05,false,bus,person,occlusion,control,mask,partial viewing,few large,Training_Stimulus\fewlarge_partialViewing_control_bus180.png,mask_img/000000000394.png,training,p,q,162.20540860004257
V3,30,26,Male,Right,7,Training,2.9914678999921307,0.1,false,banana,firehydrant,occlusion,high,mask,partial viewing,many small,Training_Stimulus\manysmall_partialViewing_high_banana454.png,mask_img/000000005359.png,training,w,r,166.48915100004524
V3,30,26,Male,Right,8,Training,1.078277499997057,0.025,true,bus,bus,occlusion,high,mask,partial viewing,few large,Training_Stimulus\fewlarge_partialViewing_high_bus180.png,mask_img/000000001053.png,training,q,q,168.97355230001267
V3,30,26,Male,Right,9,Training,1.4921023999340832,0.05,true,firehydrant,firehydrant,occlusion,low,mask,partial viewing,few large,Training_Stimulus\fewlarge_partialViewing_low_firehydrant90.png,mask_img/000000003225.png,training,w,w,171.86406789999455
V3,30,26,Male,Right,10,Training,1.7927875999594107,0.05,true,banana,banana,occlusion,low,mask,partial viewing,many small,Training_Stimulus\manysmall_partialViewing_low_banana454.png,mask_img/000000006437.png,training,r,r,174.97338019998278
V3,30,26,Male,Right,11,Training,1.1533073999453336,0.025,true,bus,bus,occlusion,low,mask,partial viewing,few large,Training_Stimulus\fewlarge_partialViewing_low_bus180.png,mask_img/000000002892.png,training,q,q,177.31885619997047
V3,30,26,Male,Right,12,Training,2.962034899974242,0.025,false,bird,building,occlusion,high,mask,partial viewing,many small,Training_Stimulus\manysmall_partialViewing_high_bird4.png,mask_img/000000005418.png,training,i,o,181.84992169996258
V3,30,26,Male,Right,13,Training,2.791719099972397,0.1,false,tree,bird,occlusion,low,mask,partial viewing,many small,Training_Stimulus\manysmall_partialViewing_low_tree9.png,mask_img/000000007325.png,training,o,e,186.17854969995096
V3,30,26,Male,Right,14,Training,2.7009627000661567,0.1,true,banana,banana,occlusion,control,mask,partial viewing,few large,Training_Stimulus\fewlarge_partialViewing_control_banana454.png,mask_img/000000000042.png,training,r,r,190.09161969996057
V3,30,26,Male,Right,15,Training,2.140539600048214,0.05,true,cat,cat,occlusion,high,mask,partial viewing,few large,Training_Stimulus\fewlarge_partialViewing_high_cat432.png,mask_img/000000001647.png,training,u,u,193.6633571999846
V3,30,26,Male,Right,16,Training,1.953389799920842,0.025,true,tree,tree,occlusion,control,mask,partial viewing,many small,Training_Stimulus\manysmall_partialViewing_control_tree9.png,mask_img/000000005282.png,training,e,e,196.88441459997557
V3,30,26,Male,Right,17,Training,1.198882699944079,0.025,true,firehydrant,firehydrant,occlusion,low,mask,partial viewing,few large,Training_Stimulus\fewlarge_partialViewing_low_firehydrant90.png,mask_img/000000003225.png,training,w,w,199.2278242999455
V3,30,26,Male,Right,18,Training,0.920315399998799,0.05,true,firehydrant,firehydrant,occlusion,control,mask,partial viewing,many small,Training_Stimulus\manysmall_partialViewing_control_firehydrant90.png,mask_img/000000005131.png,training,w,w,201.2435423999559
V3,30,26,Male,Right,19,Training,1.7013265000423416,0.1,true,banana,banana,occlusion,control,mask,partial viewing,many small,Training_Stimulus\manysmall_partialViewing_control_banana454.png,mask_img/000000004239.png,training,r,r,204.24382640002295
V3,30,26,Male,Right,20,Training,1.3257818999700248,0.025,true,bird,bird,occlusion,control,mask,partial viewing,many small,Training_Stimulus\manysmall_partialViewing_control_bird4.png,mask_img/000000004642.png,training,o,o,206.79193469998427
V3,30,26,Male,Right,21,Training,0.9888499999651685,0.1,true,firehydrant,firehydrant,occlusion,control,mask,partial viewing,few large,Training_Stimulus\fewlarge_partialViewing_control_firehydrant90.png,mask_img/000000000459.png,training,w,w,209.08892040001228
V3,30,26,Male,Right,1,Block 1,1.671690999995917,0.025,false,building,firehydrant,occlusion,high,mask,partial viewing,many small,Stimulus\all_stim\occlusion\partialviewing\manysmall\high\manysmall_partialViewing_high_building5.png,mask_img/000000046029.png,experiment,w,i,218.8331301000435
V3,30,26,Male,Right,2,Block 1,1.4329279999947175,0.1,true,person,person,occlusion,control,mask,partial viewing,few large,Stimulus\all_stim\occlusion\partialviewing\fewlarge\control\fewlarge_partialViewing_control_person7.png,mask_img/000000009648.png,experiment,p,p,220.97699530003592
V3,30,26,Male,Right,3,Block 1,1.1525455999653786,0.1,false,tree,firehydrant,occlusion,control,mask,partial viewing,many small,Stimulus\all_stim\occlusion\partialviewing\manysmall\control\manysmall_partialViewing_control_tree6.png,mask_img/000000041272.png,experiment,w,e,222.96897709998302
V3,30,26,Male,Right,4,Block 1,2.456354899914004,0.1,true,building,building,occlusion,low,mask,partial viewing,few large,Stimulus\all_stim\occlusion\partialviewing\fewlarge\low\fewlarge_partialViewing_low_building7.png,mask_img/000000025192.png,experiment,i,i,226.1687810999574
V3,30,26,Male,Right,5,Block 1,2.103246800019406,0.025,true,banana,banana,occlusion,high,mask,partial viewing,few large,Stimulus\all_stim\occlusion\partialviewing\fewlarge\high\fewlarge_partialViewing_high_banana10.png,mask_img/000000012178.png,experiment,r,r,229.38482349994592
V3,30,26,Male,Right,6,Block 1,1.1887386000016704,0.1,true,person,person,occlusion,low,mask,partial viewing,few large,Stimulus\all_stim\occlusion\partialviewing\fewlarge\low\fewlarge_partialViewing_low_person3.png,mask_img/000000029506.png,experiment,p,p,231.53087180003058
V3,30,26,Male,Right,7,Block 1,1.16352319996804,0.1,true,bird,bird,occlusion,control,mask,partial viewing,few large,Stimulus\all_stim\occlusion\partialviewing\fewlarge\control\fewlarge_partialViewing_control_bird7.png,mask_img/000000002774.png,experiment,o,o,233.55287649994716
V3,30,26,Male,Right,8,Block 1,1.656837899936363,0.05,true,building,building,occlusion,low,mask,partial viewing,few large,Stimulus\all_stim\occlusion\partialviewing\fewlarge\low\fewlarge_partialViewing_low_building6.png,mask_img/000000025143.png,experiment,i,i,235.9127615999896
V3,30,26,Male,Right,9,Block 1,1.0887252999236807,0.025,true,building,building,occlusion,low,mask,partial viewing,many small,Stimulus\all_stim\occlusion\partialviewing\manysmall\low\manysmall_partialViewing_low_building9.png,mask_img/000000058102.png,experiment,i,i,238.05686819995753
V3,30,26,Male,Right,10,Block 1,4.092494099983014,0.025,false,bird,tree,occlusion,low,mask,partial viewing,many small,Stimulus\all_stim\occlusion\partialviewing\manysmall\low\manysmall_partialViewing_low_bird10.png,mask_img/000000055733.png,experiment,e,o,243.0328475999413
V3,30,26,Male,Right,11,Block 1,1.434619199950248,0.025,true,building,building,occlusion,control,mask,partial viewing,many small,Stimulus\all_stim\occlusion\partialviewing\manysmall\control\manysmall_partialViewing_control_building1.png,mask_img/000000035818.png,experiment,i,i,245.16078769997694
V3,30,26,Male,Right,12,Block 1,0.873805099981837,0.025,true,building,building,occlusion,high,mask,partial viewing,few large,Stimulus\all_stim\occlusion\partialviewing\fewlarge\high\fewlarge_partialViewing_high_building2.png,mask_img/000000014472.png,experiment,i,i,247.1065149999922
V3,30,26,Male,Right,13,Block 1,1.2979270999785513,0.05,false,cat,bird,occlusion,high,mask,partial viewing,many small,Stimulus\all_stim\occlusion\partialviewing\manysmall\high\manysmall_partialViewing_high_cat5.png,mask_img/000000049428.png,experiment,o,u,249.2727661000099
V3,30,26,Male,Right,14,Block 1,2.398746099905111,0.1,true,cat,cat,occlusion,low,mask,partial viewing,many small,Stimulus\all_stim\occlusion\partialviewing\manysmall\low\manysmall_partialViewing_low_cat6.png,mask_img/000000059918.png,experiment,u,u,252.4567874999484
V3,30,26,Male,Right,15,Block 1,1.122981599997729,0.05,true,tree,tree,occlusion,control,mask,partial viewing,many small,Stimulus\all_stim\occlusion\partialviewing\manysmall\control\manysmall_partialViewing_control_tree10.png,mask_img/000000040948.png,experiment,e,e,254.55260469997302
V3,30,26,Male,Right,16,Block 1,1.1271256000036374,0.025,true,tree,tree,occlusion,high,mask,partial viewing,many small,Stimulus\all_stim\occlusion\partialviewing\manysmall\high\manysmall_partialViewing_high_tree4.png,mask_img/000000053143.png,experiment,e,e,256.8170959999552
V3,30,26,Male,Right,17,Block 1,1.0270403999602422,0.1,true,firehydrant,firehydrant,occlusion,high,mask,partial viewing,many small,Stimulus\all_stim\occlusion\partialviewing\manysmall\high\manysmall_partialViewing_high_firehydrant2.png,mask_img/000000050239.png,experiment,w,w,258.95298539998475
V3,30,26,Male,Right,18,Block 1,1.1404857999878004,0.05,true,bird,bird,occlusion,low,mask,partial viewing,few large,Stimulus\all_stim\occlusion\partialviewing\fewlarge\low\fewlarge_partialViewing_low_bird7.png,mask_img/000000024403.png,experiment,o,o,260.92111340002157
V3,30,26,Male,Right,19,Block 1,1.2149378000758588,0.1,true,tree,tree,occlusion,high,mask,partial viewing,few large,Stimulus\all_stim\occlusion\partialviewing\fewlarge\high\fewlarge_partialViewing_high_tree7.png,mask_img/000000022256.png,experiment,e,e,263.01675730000716
V3,30,26,Male,Right,20,Block 1,2.443401399999857,0.1,true,cat,cat,occlusion,control,mask,partial viewing,many small,Stimulus\all_stim\occlusion\partialviewing\manysmall\control\manysmall_partialViewing_control_cat5.png,mask_img/000000038601.png,experiment,u,u,266.16907800000627
V3,30,26,Male,Right,21,Block 1,1.1470913999946788,0.05,false,person,bird,occlusion,low,mask,partial viewing,many small,Stimulus\all_stim\occlusion\partialviewing\manysmall\low\manysmall_partialViewing_low_person9.png,mask_img/000000062427.png,experiment,o,p,268.1288666999899
V3,30,26,Male,Right,22,Block 1,0.9021615999517962,0.1,false,tree,bird,occlusion,low,mask,partial viewing,many small,Stimulus\all_stim\occlusion\partialviewing\manysmall\low\manysmall_partialViewing_low_tree1.png,mask_img/000000062690.png,experiment,o,e,269.93678170000203
V3,30,26,Male,Right,23,Block 1,1.9628994000377133,0.1,false,tree,bird,occlusion,high,mask,partial viewing,many small,Stimulus\all_stim\occlusion\partialviewing\manysmall\high\manysmall_partialViewing_high_tree2.png,mask_img/000000052901.png,experiment,o,e,272.94486239994876
V3,30,26,Male,Right,24,Block 1,0.8657975000096485,0.1,true,bus,bus,occlusion,control,mask,partial viewing,many small,Stimulus\all_stim\occlusion\partialviewing\manysmall\control\manysmall_partialViewing_control_bus1.png,mask_img/000000036255.png,experiment,q,q,274.96928029996343
V3,30,26,Male,Right,25,Block 1,1.586729699978605,0.05,true,tree,tree,occlusion,control,mask,partial viewing,few large,Stimulus\all_stim\occlusion\partialviewing\fewlarge\control\fewlarge_partialViewing_control_tree4.png,mask_img/000000010969.png,experiment,e,e,277.6729004000081
V3,30,26,Male,Right,26,Block 1,0.8556808000430465,0.025,false,cat,tree,occlusion,low,mask,partial viewing,many small,Stimulus\all_stim\occlusion\partialviewing\manysmall\low\manysmall_partialViewing_low_cat1.png,mask_img/000000059036.png,experiment,e,u,279.40864199993666
V3,30,26,Male,Right,27,Block 1,1.2007440999150276,0.05,false,cat,bird,occlusion,control,mask,partial viewing,many small,Stimulus\all_stim\occlusion\partialviewing\manysmall\control\manysmall_partialViewing_control_cat1.png,mask_img/000000038177.png,experiment,o,u,281.6408057999797
V3,30,26,Male,Right,28,Block 1,1.571372199920006,0.025,true,cat,cat,occlusion,high,mask,partial viewing,many small,Stimulus\all_stim\occlusion\partialviewing\manysmall\high\manysmall_partialViewing_high_cat10.png,mask_img/000000048929.png,experiment,u,u,284.217171199969
V3,30,26,Male,Right,29,Block 1,1.7222885000519454,0.05,true,bird,bird,occlusion,low,mask,partial viewing,many small,Stimulus\all_stim\occlusion\partialviewing\manysmall\low\manysmall_partialViewing_low_bird3.png,mask_img/000000055849.png,experiment,o,o,287.10488360002637
V3,30,26,Male,Right,30,Block 1,1.5516931000165641,0.025,true,banana,banana,occlusion,high,mask,partial viewing,few large,Stimulus\all_stim\occlusion\partialviewing\fewlarge\high\fewlarge_partialViewing_high_banana5.png,mask_img/000000012543.png,experiment,r,r,289.6887882000301
V3,30,26,Male,Right,31,Block 1,1.39811930002179,0.1,true,cat,cat,occlusion,control,mask,partial viewing,few large,Stimulus\all_stim\occlusion\partialviewing\fewlarge\control\fewlarge_partialViewing_control_cat1.png,mask_img/000000006437.png,experiment,u,u,291.9064665000187
V3,30,26,Male,Right,32,Block 1,1.6262564999051392,0.1,false,person,bird,occlusion,low,mask,partial viewing,many small,Stimulus\all_stim\occlusion\partialviewing\manysmall\low\manysmall_partialViewing_low_person9.png,mask_img/000000062427.png,experiment,o,p,294.2888169999933
V3,30,26,Male,Right,33,Block 1,1.4425069000571966,0.025,true,cat,cat,occlusion,low,mask,partial viewing,few large,Stimulus\all_stim\occlusion\partialviewing\fewlarge\low\fewlarge_partialViewing_low_cat6.png,mask_img/000000027764.png,experiment,u,u,296.73879500001203
V3,30,26,Male,Right,34,Block 1,1.2593916000332683,0.05,true,firehydrant,firehydrant,occlusion,low,mask,partial viewing,many small,Stimulus\all_stim\occlusion\partialviewing\manysmall\low\manysmall_partialViewing_low_firehydrant8.png,mask_img/000000061512.png,experiment,w,w,298.7368780999677
V3,30,26,Male,Right,35,Block 1,2.2804467999376357,0.05,true,cat,cat,occlusion,low,mask,partial viewing,many small,Stimulus\all_stim\occlusion\partialviewing\manysmall\low\manysmall_partialViewing_low_cat2.png,mask_img/000000059201.png,experiment,u,u,301.9448927999474
V3,30,26,Male,Right,36,Block 1,0.7418338999850675,0.1,true,cat,cat,occlusion,high,mask,partial viewing,few large,Stimulus\all_stim\occlusion\partialviewing\fewlarge\high\fewlarge_partialViewing_high_cat4.png,mask_img/000000017364.png,experiment,u,u,303.3925086000236
V3,30,26,Male,Right,37,Block 1,1.1203579000430182,0.025,true,banana,banana,occlusion,control,mask,partial viewing,few large,Stimulus\all_stim\occlusion\partialviewing\fewlarge\control\fewlarge_partialViewing_control_banana8.png,mask_img/000000000690.png,experiment,r,r,305.456982600037
V3,30,26,Male,Right,38,Block 1,1.6012763000326231,0.025,true,tree,tree,occlusion,control,mask,partial viewing,many small,Stimulus\all_stim\occlusion\partialviewing\manysmall\control\manysmall_partialViewing_control_tree5.png,mask_img/000000041174.png,experiment,e,e,307.93674929998815
V3,30,26,Male,Right,39,Block 1,0.9679816999705508,0.05,true,bird,bird,occlusion,control,mask,partial viewing,few large,Stimulus\all_stim\occlusion\partialviewing\fewlarge\control\fewlarge_partialViewing_control_bird4.png,mask_img/000000001997.png,experiment,o,o,309.7768546999432
V3,30,26,Male,Right,40,Block 1,0.8450061000185087,0.05,true,bus,bus,occlusion,high,mask,partial viewing,many small,Stimulus\all_stim\occlusion\partialviewing\manysmall\high\manysmall_partialViewing_high_bus4.png,mask_img/000000047316.png,experiment,q,q,311.73679889994673
V3,30,26,Male,Right,41,Block 1,0.7289089999394491,0.05,true,person,person,occlusion,low,mask,partial viewing,few large,Stimulus\all_stim\occlusion\partialviewing\fewlarge\low\fewlarge_partialViewing_low_person4.png,mask_img/000000029730.png,experiment,p,p,313.4805372999981
V3,30,26,Male,Right,42,Block 1,1.061179600073956,0.05,false,banana,bird,occlusion,high,mask,partial viewing,many small,Stimulus\all_stim\occlusion\partialviewing\manysmall\high\manysmall_partialViewing_high_banana10.png,mask_img/000000042196.png,experiment,o,r,315.46562160004396
V3,30,26,Male,Right,43,Block 1,1.4399834000505507,0.1,true,cat,cat,occlusion,low,mask,partial viewing,few large,Stimulus\all_stim\occlusion\partialviewing\fewlarge\low\fewlarge_partialViewing_low_cat2.png,mask_img/000000027371.png,experiment,u,u,317.8328798000002
V3,30,26,Male,Right,44,Block 1,1.389538999996148,0.05,false,banana,bird,occlusion,high,mask,partial viewing,few large,Stimulus\all_stim\occlusion\partialviewing\fewlarge\high\fewlarge_partialViewing_high_banana7.png,mask_img/000000012567.png,experiment,o,r,319.9290192000335
V3,30,26,Male,Right,45,Block 1,0.7314902000362054,0.1,true,bus,bus,occlusion,high,mask,partial viewing,few large,Stimulus\all_stim\occlusion\partialviewing\fewlarge\high\fewlarge_partialViewing_high_bus6.png,mask_img/000000015987.png,experiment,q,q,321.6648431000067
V3,30,26,Male,Right,46,Block 1,1.5308688000077382,0.1,true,tree,tree,occlusion,control,mask,partial viewing,few large,Stimulus\all_stim\occlusion\partialviewing\fewlarge\control\fewlarge_partialViewing_control_tree9.png,mask_img/000000011701.png,experiment,e,e,323.9608959000325
V3,30,26,Male,Right,47,Block 1,0.9841422999743372,0.05,true,bus,bus,occlusion,high,mask,partial viewing,many small,Stimulus\all_stim\occlusion\partialviewing\manysmall\high\manysmall_partialViewing_high_bus7.png,mask_img/000000047471.png,experiment,q,q,325.9847863999894
V3,30,26,Male,Right,48,Block 1,0.7164737000130117,0.025,true,person,person,occlusion,control,mask,partial viewing,few large,Stimulus\all_stim\occlusion\partialviewing\fewlarge\control\fewlarge_partialViewing_control_person7.png,mask_img/000000009648.png,experiment,p,p,327.3527258000104
V3,30,26,Male,Right,49,Block 1,1.5167306000366807,0.1,true,bird,bird,occlusion,low,mask,partial viewing,many small,Stimulus\all_stim\occlusion\partialviewing\manysmall\low\manysmall_partialViewing_low_bird4.png,mask_img/000000055859.png,experiment,o,o,329.8246894000331
V3,30,26,Male,Right,50,Block 1,2.591334700002335,0.1,false,cat,bird,occlusion,low,mask,partial viewing,many small,Stimulus\all_stim\occlusion\partialviewing\manysmall\low\manysmall_partialViewing_low_cat10.png,mask_img/000000059046.png,experiment,o,u,333.44101259997115
V3,30,26,Male,Right,51,Block 1,1.242551299976185,0.05,false,tree,bird,occlusion,low,mask,partial viewing,many small,Stimulus\all_stim\occlusion\partialviewing\manysmall\low\manysmall_partialViewing_low_tree1.png,mask_img/000000062690.png,experiment,o,e,335.67279470001813
V3,30,26,Male,Right,52,Block 1,1.0170486000133678,0.1,false,person,bird,occlusion,high,mask,partial viewing,many small,Stimulus\all_stim\occlusion\partialviewing\manysmall\high\manysmall_partialViewing_high_person10.png,mask_img/000000051453.png,experiment,o,p,337.72856910002884
V3,30,26,Male,Right,53,Block 1,0.9283905000193045,0.1,true,bird,bird,occlusion,low,mask,partial viewing,many small,Stimulus\all_stim\occlusion\partialviewing\manysmall\low\manysmall_partialViewing_low_bird5.png,mask_img/000000055942.png,experiment,o,o,339.6885925999377
V3,30,26,Male,Right,54,Block 1,0.6862911001080647,0.025,true,bus,bus,occlusion,control,mask,partial viewing,many small,Stimulus\all_stim\occlusion\partialviewing\manysmall\control\manysmall_partialViewing_control_bus10.png,mask_img/000000036482.png,experiment,q,q,341.4167301999405
V3,30,26,Male,Right,55,Block 1,0.5549336998956278,0.05,true,person,person,occlusion,control,mask,partial viewing,few large,Stimulus\all_stim\occlusion\partialviewing\fewlarge\control\fewlarge_partialViewing_control_person9.png,mask_img/000000009809.png,experiment,p,p,342.7733574999729
V3,30,26,Male,Right,56,Block 1,1.0929300000425428,0.1,false,banana,tree,occlusion,low,mask,partial viewing,few large,Stimulus\all_stim\occlusion\partialviewing\fewlarge\low\fewlarge_partialViewing_low_banana6.png,mask_img/000000023137.png,experiment,e,r,344.84068959997967
V3,30,26,Male,Right,57,Block 1,1.0801318999147043,0.05,false,person,bird,occlusion,low,mask,partial viewing,many small,Stimulus\all_stim\occlusion\partialviewing\manysmall\low\manysmall_partialViewing_low_person6.png,mask_img/000000062337.png,experiment,o,p,347.0727036000462
V3,30,26,Male,Right,58,Block 1,1.9384522999171168,0.1,true,building,building,occlusion,low,mask,partial viewing,many small,Stimulus\all_stim\occlusion\partialviewing\manysmall\low\manysmall_partialViewing_low_building9.png,mask_img/000000058102.png,experiment,i,i,349.9608817000408
V3,30,26,Male,Right,59,Block 1,1.7322372000198811,0.025,false,banana,building,occlusion,high,mask,partial viewing,many small,Stimulus\all_stim\occlusion\partialviewing\manysmall\high\manysmall_partialViewing_high_banana3.png,mask_img/000000042476.png,experiment,i,r,352.7767949999543
V3,30,26,Male,Right,60,Block 1,2.046444100094959,0.1,false,firehydrant,cat,occlusion,high,mask,partial viewing,many small,Stimulus\all_stim\occlusion\partialviewing\manysmall\high\manysmall_partialViewing_high_firehydrant6.png,mask_img/000000050782.png,experiment,u,w,355.9690334999468
V3,30,26,Male,Right,61,Block 1,1.2337369000306353,0.1,true,banana,banana,occlusion,low,mask,partial viewing,few large,Stimulus\all_stim\occlusion\partialviewing\fewlarge\low\fewlarge_partialViewing_low_banana4.png,mask_img/000000023015.png,experiment,r,r,357.90493680001236
V3,30,26,Male,Right,62,Block 1,2.297719599911943,0.025,true,cat,cat,occlusion,high,mask,partial viewing,few large,Stimulus\all_stim\occlusion\partialviewing\fewlarge\high\fewlarge_partialViewing_high_cat9.png,mask_img/000000017858.png,experiment,u,u,361.0648586000316
V3,30,26,Male,Right,63,Block 1,0.7996920000296086,0.1,true,bus,bus,occlusion,high,mask,partial viewing,many small,Stimulus\all_stim\occlusion\partialviewing\manysmall\high\manysmall_partialViewing_high_bus4.png,mask_img/000000047316.png,experiment,q,q,362.9926270999713
V3,30,26,Male,Right,64,Block 1,0.6793395999120548,0.1,true,bus,bus,occlusion,high,mask,partial viewing,few large,Stimulus\all_stim\occlusion\partialviewing\fewlarge\high\fewlarge_partialViewing_high_bus9.png,mask_img/000000016764.png,experiment,q,q,364.8148054999765
V3,30,26,Male,Right,65,Block 1,0.7103410999989137,0.1,true,bus,bus,occlusion,low,mask,partial viewing,many small,Stimulus\all_stim\occlusion\partialviewing\manysmall\low\manysmall_partialViewing_low_bus9.png,mask_img/000000058910.png,experiment,q,q,366.4885624999879
V3,30,26,Male,Right,66,Block 1,0.6921334000071511,0.05,true,person,person,occlusion,low,mask,partial viewing,many small,Stimulus\all_stim\occlusion\partialviewing\manysmall\low\manysmall_partialViewing_low_person10.png,mask_img/000000061838.png,experiment,p,p,368.1524862999795
V3,30,26,Male,Right,67,Block 1,1.1879163000267,0.025,true,banana,banana,occlusion,control,mask,partial viewing,few large,Stimulus\all_stim\occlusion\partialviewing\fewlarge\control\fewlarge_partialViewing_control_banana2.png,mask_img/000000000312.png,experiment,r,r,370.2888384000398
V3,30,26,Male,Right,68,Block 1,0.6717047999845818,0.025,true,banana,banana,occlusion,control,mask,partial viewing,few large,Stimulus\all_stim\occlusion\partialviewing\fewlarge\control\fewlarge_partialViewing_control_banana7.png,mask_img/000000000626.png,experiment,r,r,371.68859789997805
V3,30,26,Male,Right,69,Block 1,1.10902640002314,0.1,false,tree,bird,occlusion,high,mask,partial viewing,many small,Stimulus\all_stim\occlusion\partialviewing\manysmall\high\manysmall_partialViewing_high_tree7.png,mask_img/000000053635.png,experiment,o,e,373.64889379998203
V3,30,26,Male,Right,70,Block 1,0.7242355999769643,0.1,true,person,person,occlusion,control,mask,partial viewing,few large,Stimulus\all_stim\occlusion\partialviewing\fewlarge\control\fewlarge_partialViewing_control_person3.png,mask_img/000000008920.png,experiment,p,p,375.34472910000477
V3,30,26,Male,Right,71,Block 1,1.284435399924405,0.1,true,building,building,occlusion,high,mask,partial viewing,few large,Stimulus\all_stim\occlusion\partialviewing\fewlarge\high\fewlarge_partialViewing_high_building2.png,mask_img/000000014472.png,experiment,i,i,377.7449193999637
V3,30,26,Male,Right,72,Block 1,0.7561590999830514,0.025,true,bus,bus,occlusion,control,mask,partial viewing,many small,Stimulus\all_stim\occlusion\partialviewing\manysmall\control\manysmall_partialViewing_control_bus9.png,mask_img/000000037864.png,experiment,q,q,379.67258759995457
V3,30,26,Male,Right,73,Block 1,1.0379048000322655,0.05,false,building,bus,occlusion,control,mask,partial viewing,many small,Stimulus\all_stim\occlusion\partialviewing\manysmall\control\manysmall_partialViewing_control_building6.png,mask_img/000000036006.png,experiment,q,i,381.5288511000108
V3,30,26,Male,Right,74,Block 1,0.793127299984917,0.05,true,bus,bus,occlusion,low,mask,partial viewing,many small,Stimulus\all_stim\occlusion\partialviewing\manysmall\low\manysmall_partialViewing_low_bus5.png,mask_img/000000058801.png,experiment,q,q,383.2166711000027
V3,30,26,Male,Right,75,Block 1,0.776111299986951,0.025,true,person,person,occlusion,low,mask,partial viewing,few large,Stimulus\all_stim\occlusion\partialviewing\fewlarge\low\fewlarge_partialViewing_low_person6.png,mask_img/000000030267.png,experiment,p,p,384.71273989998735
V3,30,26,Male,Right,76,Block 1,0.6819514000089839,0.05,true,bus,bus,occlusion,control,mask,partial viewing,few large,Stimulus\all_stim\occlusion\partialviewing\fewlarge\control\fewlarge_partialViewing_control_bus4.png,mask_img/000000005574.png,experiment,q,q,386.16075889999047
V3,30,26,Male,Right,77,Block 1,0.8174452999373898,0.1,true,person,person,occlusion,control,mask,partial viewing,many small,Stimulus\all_stim\occlusion\partialviewing\manysmall\control\manysmall_partialViewing_control_person4.png,mask_img/000000040042.png,experiment,p,p,387.9525526999496
V3,30,26,Male,Right,78,Block 1,0.7431428000563756,0.1,true,person,person,occlusion,control,mask,partial viewing,many small,Stimulus\all_stim\occlusion\partialviewing\manysmall\control\manysmall_partialViewing_control_person5.png,mask_img/000000040275.png,experiment,p,p,389.6728456999408
V3,30,26,Male,Right,79,Block 1,0.707713000010699,0.1,true,person,person,occlusion,control,mask,partial viewing,few large,Stimulus\all_stim\occlusion\partialviewing\fewlarge\control\fewlarge_partialViewing_control_person4.png,mask_img/000000009178.png,experiment,p,p,391.0889148999704
V3,30,26,Male,Right,80,Block 1,1.2588290000567213,0.05,true,tree,tree,occlusion,high,mask,partial viewing,few large,Stimulus\all_stim\occlusion\partialviewing\fewlarge\high\fewlarge_partialViewing_high_tree3.png,mask_img/000000021942.png,experiment,e,e,393.2645977999782
V3,30,26,Male,Right,81,Block 1,1.7678667000727728,0.1,true,banana,banana,occlusion,high,mask,partial viewing,many small,Stimulus\all_stim\occlusion\partialviewing\manysmall\high\manysmall_partialViewing_high_banana1.png,mask_img/000000041962.png,experiment,r,r,395.86482669995166
V3,30,26,Male,Right,82,Block 1,0.9319211000110954,0.025,true,firehydrant,firehydrant,occlusion,control,mask,partial viewing,few large,Stimulus\all_stim\occlusion\partialviewing\fewlarge\control\fewlarge_partialViewing_control_firehydrant10.png,mask_img/000000007758.png,experiment,w,w,397.7766428999603
V3,30,26,Male,Right,83,Block 1,0.7196713000303134,0.1,true,firehydrant,firehydrant,occlusion,high,mask,partial viewing,few large,Stimulus\all_stim\occlusion\partialviewing\fewlarge\high\fewlarge_partialViewing_high_firehydrant3.png,mask_img/000000018864.png,experiment,w,w,399.5060989999911
V3,30,26,Male,Right,84,Block 1,1.0475371000356972,0.05,true,bird,bird,occlusion,low,mask,partial viewing,few large,Stimulus\all_stim\occlusion\partialviewing\fewlarge\low\fewlarge_partialViewing_low_bird6.png,mask_img/000000024247.png,experiment,o,o,401.22486750001553
V3,30,26,Male,Right,85,Block 1,1.6601058000233024,0.1,true,bus,bus,occlusion,control,mask,partial viewing,many small,Stimulus\all_stim\occlusion\partialviewing\manysmall\control\manysmall_partialViewing_control_bus6.png,mask_img/000000037174.png,experiment,q,q,403.96886389993597
V3,30,26,Male,Right,86,Block 1,2.0865058000199497,0.05,true,banana,banana,occlusion,high,mask,partial viewing,few large,Stimulus\all_stim\occlusion\partialviewing\fewlarge\high\fewlarge_partialViewing_high_banana3.png,mask_img/000000012313.png,experiment,r,r,406.85003610001877
V3,30,26,Male,Right,87,Block 1,1.0896875999169424,0.025,false,banana,bird,occlusion,high,mask,partial viewing,few large,Stimulus\all_stim\occlusion\partialviewing\fewlarge\high\fewlarge_partialViewing_high_banana7.png,mask_img/000000012567.png,experiment,o,r,408.65010229998734
V3,30,26,Male,Right,88,Block 1,0.7036673999391496,0.025,true,person,person,occlusion,control,mask,partial viewing,many small,Stimulus\all_stim\occlusion\partialviewing\manysmall\control\manysmall_partialViewing_control_person5.png,mask_img/000000040275.png,experiment,p,p,410.09741549997125
V3,30,26,Male,Right,89,Block 1,0.7030919999815524,0.05,true,bus,bus,occlusion,low,mask,partial viewing,few large,Stimulus\all_stim\occlusion\partialviewing\fewlarge\low\fewlarge_partialViewing_low_bus3.png,mask_img/000000025997.png,experiment,q,q,411.9129863999551
V3,30,26,Male,Right,90,Block 1,2.335235800012015,0.05,true,cat,cat,occlusion,control,mask,partial viewing,few large,Stimulus\all_stim\occlusion\partialviewing\fewlarge\control\fewlarge_partialViewing_control_cat9.png,mask_img/000000007558.png,experiment,u,u,415.0088552000234
V3,30,26,Male,Right,91,Block 1,0.6266195999924093,0.025,true,bus,bus,occlusion,high,mask,partial viewing,few large,Stimulus\all_stim\occlusion\partialviewing\fewlarge\high\fewlarge_partialViewing_high_bus9.png,mask_img/000000016764.png,experiment,q,q,416.3927019999828
V3,30,26,Male,Right,92,Block 1,1.4473486999049783,0.05,true,banana,banana,occlusion,high,mask,partial viewing,few large,Stimulus\all_stim\occlusion\partialviewing\fewlarge\high\fewlarge_partialViewing_high_banana5.png,mask_img/000000012543.png,experiment,r,r,418.58457019994967
V3,30,26,Male,Right,93,Block 1,1.3881319999927655,0.05,true,firehydrant,firehydrant,occlusion,high,mask,partial viewing,many small,Stimulus\all_stim\occlusion\partialviewing\manysmall\high\manysmall_partialViewing_high_firehydrant5.png,mask_img/000000050496.png,experiment,w,w,420.992822399945
V3,30,26,Male,Right,94,Block 1,0.6576852999860421,0.025,true,person,person,occlusion,high,mask,partial viewing,few large,Stimulus\all_stim\occlusion\partialviewing\fewlarge\high\fewlarge_partialViewing_high_person1.png,mask_img/000000019759.png,experiment,p,p,422.41035869996995
V3,30,26,Male,Right,95,Block 1,0.9851026999531314,0.025,true,firehydrant,firehydrant,occlusion,control,mask,partial viewing,many small,Stimulus\all_stim\occlusion\partialviewing\manysmall\control\manysmall_partialViewing_control_firehydrant6.png,mask_img/000000039406.png,experiment,w,w,424.344685500022
V3,30,26,Male,Right,96,Block 1,1.1831304000224918,0.1,true,banana,banana,occlusion,control,mask,partial viewing,many small,Stimulus\all_stim\occlusion\partialviewing\manysmall\control\manysmall_partialViewing_control_banana2.png,mask_img/000000033126.png,experiment,r,r,426.4247347000055
V3,30,26,Male,Right,97,Block 1,0.7302644000155851,0.1,true,person,person,occlusion,control,mask,partial viewing,many small,Stimulus\all_stim\occlusion\partialviewing\manysmall\control\manysmall_partialViewing_control_person2.png,mask_img/000000039971.png,experiment,p,p,428.1288106000284
V3,30,26,Male,Right,98,Block 1,1.00406499998644,0.05,true,banana,banana,occlusion,low,mask,partial viewing,few large,Stimulus\all_stim\occlusion\partialviewing\fewlarge\low\fewlarge_partialViewing_low_banana9.png,mask_img/000000023967.png,experiment,r,r,429.96054570004344
V3,30,26,Male,Right,99,Block 1,0.698835999937728,0.1,true,bus,bus,occlusion,control,mask,partial viewing,few large,Stimulus\all_stim\occlusion\partialviewing\fewlarge\control\fewlarge_partialViewing_control_bus9.png,mask_img/000000006263.png,experiment,q,q,431.6252315000165
V3,30,26,Male,Right,100,Block 1,0.920920499949716,0.025,true,firehydrant,firehydrant,occlusion,low,mask,partial viewing,many small,Stimulus\all_stim\occlusion\partialviewing\manysmall\low\manysmall_partialViewing_low_firehydrant10.png,mask_img/000000060529.png,experiment,w,w,433.33696500002407
V3,30,26,Male,Right,101,Block 1,1.1795031999936327,0.1,true,tree,tree,occlusion,low,mask,partial viewing,few large,Stimulus\all_stim\occlusion\partialviewing\fewlarge\low\fewlarge_partialViewing_low_tree7.png,mask_img/000000032906.png,experiment,e,e,435.2408112999983
V3,30,26,Male,Right,102,Block 1,0.7346904999576509,0.1,true,person,person,occlusion,control,mask,partial viewing,many small,Stimulus\all_stim\occlusion\partialviewing\manysmall\control\manysmall_partialViewing_control_person3.png,mask_img/000000040008.png,experiment,p,p,436.7128373000305
V3,30,26,Male,Right,103,Block 1,2.4027852000435814,0.05,true,building,building,occlusion,control,mask,partial viewing,few large,Stimulus\all_stim\occlusion\partialviewing\fewlarge\control\fewlarge_partialViewing_control_building9.png,mask_img/000000005131.png,experiment,i,i,439.84113670000806
V3,30,26,Male,Right,104,Block 1,0.9009232999524102,0.05,true,bird,bird,occlusion,control,mask,partial viewing,few large,Stimulus\all_stim\occlusion\partialviewing\fewlarge\control\fewlarge_partialViewing_control_bird2.png,mask_img/000000001647.png,experiment,o,o,441.4327373999404
V3,30,26,Male,Right,105,Block 1,1.2904741000384092,0.1,true,bird,bird,occlusion,high,mask,partial viewing,few large,Stimulus\all_stim\occlusion\partialviewing\fewlarge\high\fewlarge_partialViewing_high_bird1.png,mask_img/000000013061.png,experiment,o,o,443.40878489997704
V3,30,26,Male,Right,106,Block 1,1.199345099972561,0.1,true,building,building,occlusion,control,mask,partial viewing,few large,Stimulus\all_stim\occlusion\partialviewing\fewlarge\control\fewlarge_partialViewing_control_building9.png,mask_img/000000005131.png,experiment,i,i,445.33670909993816
V3,30,26,Male,Right,107,Block 1,1.0317421000218019,0.025,true,firehydrant,firehydrant,occlusion,low,mask,partial viewing,few large,Stimulus\all_stim\occlusion\partialviewing\fewlarge\low\fewlarge_partialViewing_low_firehydrant10.png,mask_img/000000028367.png,experiment,w,w,447.1368204000173
V3,30,26,Male,Right,108,Block 1,0.718393100076355,0.025,true,bus,bus,occlusion,control,mask,partial viewing,many small,Stimulus\all_stim\occlusion\partialviewing\manysmall\control\manysmall_partialViewing_control_bus6.png,mask_img/000000037174.png,experiment,q,q,448.792994700023
V3,30,26,Male,Right,109,Block 1,1.2020846999948844,0.1,true,banana,banana,occlusion,low,mask,partial viewing,many small,Stimulus\all_stim\occlusion\partialviewing\manysmall\low\manysmall_partialViewing_low_banana4.png,mask_img/000000055202.png,experiment,r,r,450.8809209000319
V3,30,26,Male,Right,110,Block 1,2.185088799917139,0.05,true,banana,banana,occlusion,high,mask,partial viewing,many small,Stimulus\all_stim\occlusion\partialviewing\manysmall\high\manysmall_partialViewing_high_banana1.png,mask_img/000000041962.png,experiment,r,r,453.80072389997076
V3,30,26,Male,Right,111,Block 1,1.0428521999856457,0.025,false,person,firehydrant,occlusion,high,mask,partial viewing,few large,Stimulus\all_stim\occlusion\partialviewing\fewlarge\high\fewlarge_partialViewing_high_person8.png,mask_img/000000020570.png,experiment,w,p,455.97694159997627
V3,30,26,Male,Right,112,Block 1,0.6798480999423191,0.05,true,bus,bus,occlusion,low,mask,partial viewing,few large,Stimulus\all_stim\occlusion\partialviewing\fewlarge\low\fewlarge_partialViewing_low_bus1.png,mask_img/000000025820.png,experiment,q,q,457.6009780999739
V3,30,26,Male,Right,113,Block 1,1.0257668000413105,0.1,true,firehydrant,firehydrant,occlusion,control,mask,partial viewing,many small,Stimulus\all_stim\occlusion\partialviewing\manysmall\control\manysmall_partialViewing_control_firehydrant3.png,mask_img/000000039113.png,experiment,w,w,459.4649177000392
V3,30,26,Male,Right,114,Block 1,0.7490586000494659,0.05,true,firehydrant,firehydrant,occlusion,control,mask,partial viewing,many small,Stimulus\all_stim\occlusion\partialviewing\manysmall\control\manysmall_partialViewing_control_firehydrant5.png,mask_img/000000039211.png,experiment,w,w,461.24078200000804
V3,30,26,Male,Right,115,Block 1,1.5027104000328109,0.1,true,cat,cat,occlusion,low,mask,partial viewing,many small,Stimulus\all_stim\occlusion\partialviewing\manysmall\low\manysmall_partialViewing_low_cat4.png,mask_img/000000059483.png,experiment,u,u,463.82477669999935
V3,30,26,Male,Right,116,Block 1,1.2866991999326274,0.05,false,person,bird,occlusion,low,mask,partial viewing,many small,Stimulus\all_stim\occlusion\partialviewing\manysmall\low\manysmall_partialViewing_low_person4.png,mask_img/000000062131.png,experiment,o,p,466.06462429999374
V3,30,26,Male,Right,117,Block 1,1.1151548000052571,0.025,true,banana,banana,occlusion,control,mask,partial viewing,many small,Stimulus\all_stim\occlusion\partialviewing\manysmall\control\manysmall_partialViewing_control_banana1.png,mask_img/000000033073.png,experiment,r,r,467.87262609996833
V3,30,26,Male,Right,118,Block 1,1.1278422999894246,0.1,true,tree,tree,occlusion,control,mask,partial viewing,many small,Stimulus\all_stim\occlusion\partialviewing\manysmall\control\manysmall_partialViewing_control_tree3.png,mask_img/000000041014.png,experiment,e,e,470.05659239995293
V3,30,26,Male,Right,119,Block 1,0.8294933000579476,0.1,true,tree,tree,occlusion,low,mask,partial viewing,many small,Stimulus\all_stim\occlusion\partialviewing\manysmall\low\manysmall_partialViewing_low_tree4.png,mask_img/000000063337.png,experiment,e,e,472.0325635999907
V3,30,26,Male,Right,120,Block 1,1.2094969000900164,0.05,true,cat,cat,occlusion,control,mask,partial viewing,few large,Stimulus\all_stim\occlusion\partialviewing\fewlarge\control\fewlarge_partialViewing_control_cat6.png,mask_img/000000007179.png,experiment,u,u,474.04070709994994
V3,30,26,Male,Right,121,Block 1,1.015402500052005,0.05,true,firehydrant,firehydrant,occlusion,control,mask,partial viewing,few large,Stimulus\all_stim\occlusion\partialviewing\fewlarge\control\fewlarge_partialViewing_control_firehydrant4.png,mask_img/000000007952.png,experiment,w,w,476.1529815000249
V3,30,26,Male,Right,122,Block 1,2.003030499909073,0.1,true,banana,banana,occlusion,high,mask,partial viewing,many small,Stimulus\all_stim\occlusion\partialviewing\manysmall\high\manysmall_partialViewing_high_banana7.png,mask_img/000000043024.png,experiment,r,r,479.032839099993
V3,30,26,Male,Right,123,Block 1,0.6011930999811739,0.025,true,bus,bus,occlusion,low,mask,partial viewing,few large,Stimulus\all_stim\occlusion\partialviewing\fewlarge\low\fewlarge_partialViewing_low_bus1.png,mask_img/000000025820.png,experiment,q,q,480.3526460999856
V3,30,26,Male,Right,124,Block 1,1.1771637999918312,0.1,true,bird,bird,occlusion,low,mask,partial viewing,few large,Stimulus\all_stim\occlusion\partialviewing\fewlarge\low\fewlarge_partialViewing_low_bird1.png,mask_img/000000023984.png,experiment,o,o,482.3205986999674
V3,30,26,Male,Right,125,Block 1,0.8692684998968616,0.05,false,tree,firehydrant,occlusion,high,mask,partial viewing,many small,Stimulus\all_stim\occlusion\partialviewing\manysmall\high\manysmall_partialViewing_high_tree4.png,mask_img/000000053143.png,experiment,w,e,483.92081589996815
V3,30,26,Male,Right,126,Block 1,0.8034493000013754,0.1,true,firehydrant,firehydrant,occlusion,high,mask,partial viewing,few large,Stimulus\all_stim\occlusion\partialviewing\fewlarge\high\fewlarge_partialViewing_high_firehydrant7.png,mask_img/000000019463.png,experiment,w,w,485.88066859997343
V3,30,26,Male,Right,127,Block 1,1.2638486999785528,0.05,true,banana,banana,occlusion,low,mask,partial viewing,few large,Stimulus\all_stim\occlusion\partialviewing\fewlarge\low\fewlarge_partialViewing_low_banana7.png,mask_img/000000023511.png,experiment,r,r,487.8408962000394
V3,30,26,Male,Right,128,Block 1,0.8834162999410182,0.1,true,bird,bird,occlusion,low,mask,partial viewing,few large,Stimulus\all_stim\occlusion\partialviewing\fewlarge\low\fewlarge_partialViewing_low_bird10.png,mask_img/000000023988.png,experiment,o,o,489.52882839995436
V3,30,26,Male,Right,129,Block 1,1.097774599911645,0.025,true,tree,tree,occlusion,control,mask,partial viewing,few large,Stimulus\all_stim\occlusion\partialviewing\fewlarge\control\fewlarge_partialViewing_control_tree3.png,mask_img/000000010566.png,experiment,e,e,491.3207951999502
V3,30,26,Male,Right,130,Block 1,1.0034796999534592,0.025,false,banana,tree,occlusion,high,mask,partial viewing,many small,Stimulus\all_stim\occlusion\partialviewing\manysmall\high\manysmall_partialViewing_high_banana5.png,mask_img/000000042541.png,experiment,e,r,493.1208848999813
V3,30,26,Male,Right,131,Block 1,1.3806714999955148,0.1,true,building,building,occlusion,control,mask,partial viewing,few large,Stimulus\all_stim\occlusion\partialviewing\fewlarge\control\fewlarge_partialViewing_control_building6.png,mask_img/000000004739.png,experiment,i,i,495.30468319996726
V3,30,26,Male,Right,132,Block 1,0.7279777999501675,0.05,true,person,person,occlusion,low,mask,partial viewing,few large,Stimulus\all_stim\occlusion\partialviewing\fewlarge\low\fewlarge_partialViewing_low_person8.png,mask_img/000000030611.png,experiment,p,p,496.7368409000337
V3,30,26,Male,Right,133,Block 1,1.1431672000326216,0.05,true,cat,cat,occlusion,low,mask,partial viewing,few large,Stimulus\all_stim\occlusion\partialviewing\fewlarge\low\fewlarge_partialViewing_low_cat5.png,mask_img/000000027704.png,experiment,u,u,498.80887639999855
V3,30,26,Male,Right,134,Block 1,1.0149202999891713,0.05,true,tree,tree,occlusion,high,mask,partial viewing,few large,Stimulus\all_stim\occlusion\partialviewing\fewlarge\high\fewlarge_partialViewing_high_tree8.png,mask_img/000000022355.png,experiment,e,e,500.80856509995647
V3,30,26,Male,Right,135,Block 1,1.053770500002429,0.05,true,bird,bird,occlusion,high,mask,partial viewing,few large,Stimulus\all_stim\occlusion\partialviewing\fewlarge\high\fewlarge_partialViewing_high_bird8.png,mask_img/000000014168.png,experiment,o,o,502.7288734000176
V3,30,26,Male,Right,136,Block 1,0.8158263000659645,0.05,true,firehydrant,firehydrant,occlusion,control,mask,partial viewing,few large,Stimulus\all_stim\occlusion\partialviewing\fewlarge\control\fewlarge_partialViewing_control_firehydrant3.png,mask_img/000000007946.png,experiment,w,w,504.6565862999996
V3,30,26,Male,Right,137,Block 1,0.9227847999427468,0.1,true,bird,bird,occlusion,high,mask,partial viewing,many small,Stimulus\all_stim\occlusion\partialviewing\manysmall\high\manysmall_partialViewing_high_bird1.png,mask_img/000000043966.png,experiment,o,o,506.58458369993605
V3,30,26,Male,Right,138,Block 1,1.144220000016503,0.1,true,tree,tree,occlusion,low,mask,partial viewing,few large,Stimulus\all_stim\occlusion\partialviewing\fewlarge\low\fewlarge_partialViewing_low_tree10.png,mask_img/000000031454.png,experiment,e,e,508.79261749994475
V3,30,26,Male,Right,139,Block 1,0.8293171999976039,0.05,true,firehydrant,firehydrant,occlusion,high,mask,partial viewing,many small,Stimulus\all_stim\occlusion\partialviewing\manysmall\high\manysmall_partialViewing_high_firehydrant3.png,mask_img/000000050276.png,experiment,w,w,510.3624263999518
V3,30,26,Male,Right,140,Block 1,0.6730974999954924,0.05,true,person,person,occlusion,high,mask,partial viewing,few large,Stimulus\all_stim\occlusion\partialviewing\fewlarge\high\fewlarge_partialViewing_high_person7.png,mask_img/000000020421.png,experiment,p,p,512.0573989000404
V3,30,26,Male,Right,141,Block 1,1.278516799909994,0.025,true,tree,tree,occlusion,control,mask,partial viewing,many small,Stimulus\all_stim\occlusion\partialviewing\manysmall\control\manysmall_partialViewing_control_tree7.png,mask_img/000000041434.png,experiment,e,e,514.5045690999832
V3,30,26,Male,Right,142,Block 1,0.8217716000508517,0.1,true,bird,bird,occlusion,control,mask,partial viewing,few large,Stimulus\all_stim\occlusion\partialviewing\fewlarge\control\fewlarge_partialViewing_control_bird3.png,mask_img/000000001810.png,experiment,o,o,516.0009433999658
V3,30,26,Male,Right,143,Block 1,1.3540845999959856,0.1,true,banana,banana,occlusion,control,mask,partial viewing,few large,Stimulus\all_stim\occlusion\partialviewing\fewlarge\control\fewlarge_partialViewing_control_banana8.png,mask_img/000000000690.png,experiment,r,r,518.3769627000438
V3,30,26,Male,Right,144,Block 1,1.891454100026749,0.025,true,person,person,occlusion,control,mask,partial viewing,many small,Stimulus\all_stim\occlusion\partialviewing\manysmall\control\manysmall_partialViewing_control_person10.png,mask_img/000000039778.png,experiment,p,p,527.8727344999788
V3,30,26,Male,Right,145,Block 2,0.9848518999060616,0.05,true,firehydrant,firehydrant,occlusion,low,mask,partial viewing,many small,Stimulus\all_stim\occlusion\partialviewing\manysmall\low\manysmall_partialViewing_low_firehydrant4.png,mask_img/000000060610.png,experiment,w,w,529.6168637999799
V3,30,26,Male,Right,146,Block 2,0.9093358999816701,0.025,true,bird,bird,occlusion,low,mask,partial viewing,many small,Stimulus\all_stim\occlusion\partialviewing\manysmall\low\manysmall_partialViewing_low_bird5.png,mask_img/000000055942.png,experiment,o,o,531.2007462999318
V3,30,26,Male,Right,147,Block 2,1.0615769000723958,0.1,true,bird,bird,occlusion,low,mask,partial viewing,few large,Stimulus\all_stim\occlusion\partialviewing\fewlarge\low\fewlarge_partialViewing_low_bird4.png,mask_img/000000024193.png,experiment,o,o,533.4007482000161
V3,30,26,Male,Right,148,Block 2,0.7135311999591067,0.1,true,firehydrant,firehydrant,occlusion,low,mask,partial viewing,few large,Stimulus\all_stim\occlusion\partialviewing\fewlarge\low\fewlarge_partialViewing_low_firehydrant3.png,mask_img/000000028518.png,experiment,w,w,534.8166514999466
V3,30,26,Male,Right,149,Block 2,0.7010074000572786,0.05,false,cat,bird,occlusion,high,mask,partial viewing,many small,Stimulus\all_stim\occlusion\partialviewing\manysmall\high\manysmall_partialViewing_high_cat3.png,mask_img/000000049254.png,experiment,o,u,536.5845223999349
V3,30,26,Male,Right,150,Block 2,1.0133259000722319,0.05,true,banana,banana,occlusion,control,mask,partial viewing,few large,Stimulus\all_stim\occlusion\partialviewing\fewlarge\control\fewlarge_partialViewing_control_banana3.png,mask_img/000000000394.png,experiment,r,r,538.4886579000158
V3,30,26,Male,Right,151,Block 2,0.7631570999510586,0.025,false,bird,person,occlusion,control,mask,partial viewing,many small,Stimulus\all_stim\occlusion\partialviewing\manysmall\control\manysmall_partialViewing_control_bird3.png,mask_img/000000034570.png,experiment,p,o,540.1125332999509
V3,30,26,Male,Right,152,Block 2,0.8105395000893623,0.025,true,firehydrant,firehydrant,occlusion,high,mask,partial viewing,many small,Stimulus\all_stim\occlusion\partialviewing\manysmall\high\manysmall_partialViewing_high_firehydrant2.png,mask_img/000000050239.png,experiment,w,w,541.8645530999638
V3,30,26,Male,Right,153,Block 2,1.6737824000883847,0.05,true,building,building,occlusion,high,mask,partial viewing,many small,Stimulus\all_stim\occlusion\partialviewing\manysmall\high\manysmall_partialViewing_high_building9.png,mask_img/000000046345.png,experiment,i,i,544.6247577000177
V3,30,26,Male,Right,154,Block 2,1.1585616000229493,0.025,true,bird,bird,occlusion,high,mask,partial viewing,many small,Stimulus\all_stim\occlusion\partialviewing\manysmall\high\manysmall_partialViewing_high_bird5.png,mask_img/000000044437.png,experiment,o,o,546.9287616999354
V3,30,26,Male,Right,155,Block 2,1.0608526999130845,0.1,true,tree,tree,occlusion,low,mask,partial viewing,many small,Stimulus\all_stim\occlusion\partialviewing\manysmall\low\manysmall_partialViewing_low_tree2.png,mask_img/000000062875.png,experiment,e,e,548.8325206999434
V3,30,26,Male,Right,156,Block 2,0.6898219999857247,0.05,true,person,person,occlusion,low,mask,partial viewing,few large,Stimulus\all_stim\occlusion\partialviewing\fewlarge\low\fewlarge_partialViewing_low_person10.png,mask_img/000000029128.png,experiment,p,p,550.352574700024
V3,30,26,Male,Right,157,Block 2,0.6984438999788836,0.05,true,firehydrant,firehydrant,occlusion,low,mask,partial viewing,many small,Stimulus\all_stim\occlusion\partialviewing\manysmall\low\manysmall_partialViewing_low_firehydrant9.png,mask_img/000000061693.png,experiment,w,w,551.8966884999536
V3,30,26,Male,Right,158,Block 2,0.790105800027959,0.05,true,firehydrant,firehydrant,occlusion,control,mask,partial viewing,few large,Stimulus\all_stim\occlusion\partialviewing\fewlarge\control\fewlarge_partialViewing_control_firehydrant10.png,mask_img/000000007758.png,experiment,w,w,553.4084797999822
V3,30,26,Male,Right,159,Block 2,0.9125092999311164,0.1,true,person,person,occlusion,high,mask,partial viewing,many small,Stimulus\all_stim\occlusion\partialviewing\manysmall\high\manysmall_partialViewing_high_person8.png,mask_img/000000052606.png,experiment,p,p,555.0965896999696
V3,30,26,Male,Right,160,Block 2,1.8403493000660092,0.1,true,cat,cat,occlusion,control,mask,partial viewing,many small,Stimulus\all_stim\occlusion\partialviewing\manysmall\control\manysmall_partialViewing_control_cat10.png,mask_img/000000038178.png,experiment,u,u,557.9768157999497
V3,30,26,Male,Right,161,Block 2,1.138747000019066,0.05,true,building,building,occlusion,control,mask,partial viewing,many small,Stimulus\all_stim\occlusion\partialviewing\manysmall\control\manysmall_partialViewing_control_building5.png,mask_img/000000036004.png,experiment,i,i,559.8250480999704
V3,30,26,Male,Right,162,Block 2,0.7940651999088004,0.05,true,bus,bus,occlusion,low,mask,partial viewing,few large,Stimulus\all_stim\occlusion\partialviewing\fewlarge\low\fewlarge_partialViewing_low_bus5.png,mask_img/000000026497.png,experiment,q,q,561.4170094999718
V3,30,26,Male,Right,163,Block 2,1.4066896999720484,0.025,false,banana,firehydrant,occlusion,high,mask,partial viewing,many small,Stimulus\all_stim\occlusion\partialviewing\manysmall\high\manysmall_partialViewing_high_banana7.png,mask_img/000000043024.png,experiment,w,r,563.4849118000129
V3,30,26,Male,Right,164,Block 2,1.1837966000894085,0.1,true,building,building,occlusion,low,mask,partial viewing,few large,Stimulus\all_stim\occlusion\partialviewing\fewlarge\low\fewlarge_partialViewing_low_building8.png,mask_img/000000025453.png,experiment,i,i,565.7845442999387
V3,30,26,Male,Right,165,Block 2,1.8027047000359744,0.05,true,bird,bird,occlusion,control,mask,partial viewing,many small,Stimulus\all_stim\occlusion\partialviewing\manysmall\control\manysmall_partialViewing_control_bird3.png,mask_img/000000034570.png,experiment,o,o,568.3367574999575
V3,30,26,Male,Right,166,Block 2,1.3722733000759035,0.025,true,cat,cat,occlusion,control,mask,partial viewing,few large,Stimulus\all_stim\occlusion\partialviewing\fewlarge\control\fewlarge_partialViewing_control_cat5.png,mask_img/000000006870.png,experiment,u,u,570.5287538999692
V3,30,26,Male,Right,167,Block 2,1.1310815999750048,0.1,true,bird,bird,occlusion,control,mask,partial viewing,few large,Stimulus\all_stim\occlusion\partialviewing\fewlarge\control\fewlarge_partialViewing_control_bird5.png,mask_img/000000002197.png,experiment,o,o,572.6008379999548
V3,30,26,Male,Right,168,Block 2,0.8046841999748722,0.05,true,bus,bus,occlusion,control,mask,partial viewing,many small,Stimulus\all_stim\occlusion\partialviewing\manysmall\control\manysmall_partialViewing_control_bus3.png,mask_img/000000036765.png,experiment,q,q,574.3126143999398
V3,30,26,Male,Right,169,Block 2,1.121454400010407,0.025,false,building,bus,occlusion,high,mask,partial viewing,many small,Stimulus\all_stim\occlusion\partialviewing\manysmall\high\manysmall_partialViewing_high_building3.png,mask_img/000000045655.png,experiment,q,i,576.5368643000256
V3,30,26,Male,Right,170,Block 2,1.8098976999754086,0.025,true,building,building,occlusion,control,mask,partial viewing,many small,Stimulus\all_stim\occlusion\partialviewing\manysmall\control\manysmall_partialViewing_control_building3.png,mask_img/000000035979.png,experiment,i,i,579.264783999999
V3,30,26,Male,Right,171,Block 2,0.689590199966915,0.025,true,person,person,occlusion,low,mask,partial viewing,few large,Stimulus\all_stim\occlusion\partialviewing\fewlarge\low\fewlarge_partialViewing_low_person3.png,mask_img/000000029506.png,experiment,p,p,580.608521200018
V3,30,26,Male,Right,172,Block 2,0.9120529999490827,0.1,true,cat,cat,occlusion,control,mask,partial viewing,few large,Stimulus\all_stim\occlusion\partialviewing\fewlarge\control\fewlarge_partialViewing_control_cat9.png,mask_img/000000007558.png,experiment,u,u,582.2006642000051
V3,30,26,Male,Right,173,Block 2,0.9032369999913499,0.05,true,building,building,occlusion,high,mask,partial viewing,few large,Stimulus\all_stim\occlusion\partialviewing\fewlarge\high\fewlarge_partialViewing_high_building6.png,mask_img/000000014774.png,experiment,i,i,583.9385130000301
V3,30,26,Male,Right,174,Block 2,0.7866928000003099,0.1,true,cat,cat,occlusion,high,mask,partial viewing,few large,Stimulus\all_stim\occlusion\partialviewing\fewlarge\high\fewlarge_partialViewing_high_cat5.png,mask_img/000000017409.png,experiment,u,u,585.8088408999611
V3,30,26,Male,Right,175,Block 2,0.6116190999746323,0.025,true,person,person,occlusion,control,mask,partial viewing,few large,Stimulus\all_stim\occlusion\partialviewing\fewlarge\control\fewlarge_partialViewing_control_person5.png,mask_img/000000009286.png,experiment,p,p,587.3686572000152
V3,30,26,Male,Right,176,Block 2,1.3391364999115467,0.025,true,cat,cat,occlusion,low,mask,partial viewing,many small,Stimulus\all_stim\occlusion\partialviewing\manysmall\low\manysmall_partialViewing_low_cat5.png,mask_img/000000059660.png,experiment,u,u,589.8649325999431
V3,30,26,Male,Right,177,Block 2,0.8946058999281377,0.05,true,building,building,occlusion,high,mask,partial viewing,many small,Stimulus\all_stim\occlusion\partialviewing\manysmall\high\manysmall_partialViewing_high_building2.png,mask_img/000000045306.png,experiment,i,i,591.8406816000352
V3,30,26,Male,Right,178,Block 2,1.0520357000641525,0.1,true,banana,banana,occlusion,control,mask,partial viewing,few large,Stimulus\all_stim\occlusion\partialviewing\fewlarge\control\fewlarge_partialViewing_control_banana4.png,mask_img/000000000438.png,experiment,r,r,593.618614200037
V3,30,26,Male,Right,179,Block 2,0.8283373999875039,0.025,true,firehydrant,firehydrant,occlusion,control,mask,partial viewing,many small,Stimulus\all_stim\occlusion\partialviewing\manysmall\control\manysmall_partialViewing_control_firehydrant1.png,mask_img/000000039012.png,experiment,w,w,595.3045474999817
V3,30,26,Male,Right,180,Block 2,1.2962230000412092,0.1,true,tree,tree,occlusion,control,mask,partial viewing,many small,Stimulus\all_stim\occlusion\partialviewing\manysmall\control\manysmall_partialViewing_control_tree2.png,mask_img/000000041008.png,experiment,e,e,597.6808129999554
V3,30,26,Male,Right,181,Block 2,1.17417180002667,0.05,true,bus,bus,occlusion,low,mask,partial viewing,few large,Stimulus\all_stim\occlusion\partialviewing\fewlarge\low\fewlarge_partialViewing_low_bus4.png,mask_img/000000026053.png,experiment,q,q,599.9287740000291
V3,30,26,Male,Right,182,Block 2,2.291209200047888,0.1,true,banana,banana,occlusion,control,mask,partial viewing,many small,Stimulus\all_stim\occlusion\partialviewing\manysmall\control\manysmall_partialViewing_control_banana8.png,mask_img/000000033904.png,experiment,r,r,603.3288532999577
V3,30,26,Male,Right,183,Block 2,0.7272252000402659,0.1,true,banana,banana,occlusion,high,mask,partial viewing,few large,Stimulus\all_stim\occlusion\partialviewing\fewlarge\high\fewlarge_partialViewing_high_banana5.png,mask_img/000000012543.png,experiment,r,r,604.9525529999519
V3,30,26,Male,Right,184,Block 2,1.1490119999507442,0.1,true,tree,tree,occlusion,control,mask,partial viewing,many small,Stimulus\all_stim\occlusion\partialviewing\manysmall\control\manysmall_partialViewing_control_tree9.png,mask_img/000000041840.png,experiment,e,e,607.081292900024
V3,30,26,Male,Right,185,Block 2,0.8444669999880716,0.1,true,firehydrant,firehydrant,occlusion,low,mask,partial viewing,many small,Stimulus\all_stim\occlusion\partialviewing\manysmall\low\manysmall_partialViewing_low_firehydrant2.png,mask_img/000000060548.png,experiment,w,w,608.7848134000087
V3,30,26,Male,Right,186,Block 2,1.3925310000777245,0.025,true,building,building,occlusion,high,mask,partial viewing,few large,Stimulus\all_stim\occlusion\partialviewing\fewlarge\high\fewlarge_partialViewing_high_building10.png,mask_img/000000014428.png,experiment,i,i,611.0649154999992
V3,30,26,Male,Right,187,Block 2,1.9399388999445364,0.05,true,cat,cat,occlusion,low,mask,partial viewing,many small,Stimulus\all_stim\occlusion\partialviewing\manysmall\low\manysmall_partialViewing_low_cat10.png,mask_img/000000059046.png,experiment,u,u,613.9370873000007
V3,30,26,Male,Right,188,Block 2,0.9158184999832883,0.1,true,building,building,occlusion,low,mask,partial viewing,few large,Stimulus\all_stim\occlusion\partialviewing\fewlarge\low\fewlarge_partialViewing_low_building5.png,mask_img/000000025034.png,experiment,i,i,615.5287716999883
V3,30,26,Male,Right,189,Block 2,0.7217557999538258,0.025,true,building,building,occlusion,low,mask,partial viewing,few large,Stimulus\all_stim\occlusion\partialviewing\fewlarge\low\fewlarge_partialViewing_low_building5.png,mask_img/000000025034.png,experiment,i,i,616.9765257999534
V3,30,26,Male,Right,190,Block 2,0.7012929000193253,0.025,true,building,building,occlusion,high,mask,partial viewing,few large,Stimulus\all_stim\occlusion\partialviewing\fewlarge\high\fewlarge_partialViewing_high_building9.png,mask_img/000000015619.png,experiment,i,i,618.6805651000468
V3,30,26,Male,Right,191,Block 2,0.7426150001119822,0.025,true,building,building,occlusion,low,mask,partial viewing,many small,Stimulus\all_stim\occlusion\partialviewing\manysmall\low\manysmall_partialViewing_low_building3.png,mask_img/000000057646.png,experiment,i,i,620.3767229999648
V3,30,26,Male,Right,192,Block 2,1.3242943999357522,0.05,true,cat,cat,occlusion,high,mask,partial viewing,many small,Stimulus\all_stim\occlusion\partialviewing\manysmall\high\manysmall_partialViewing_high_cat2.png,mask_img/000000049092.png,experiment,u,u,622.4567898999667
V3,30,26,Male,Right,193,Block 2,0.7491244000848383,0.1,true,building,building,occlusion,high,mask,partial viewing,few large,Stimulus\all_stim\occlusion\partialviewing\fewlarge\high\fewlarge_partialViewing_high_building3.png,mask_img/000000014567.png,experiment,i,i,624.0325589999557
V3,30,26,Male,Right,194,Block 2,1.210102399927564,0.025,true,tree,tree,occlusion,high,mask,partial viewing,many small,Stimulus\all_stim\occlusion\partialviewing\manysmall\high\manysmall_partialViewing_high_tree8.png,mask_img/000000054334.png,experiment,e,e,626.2725650999928
V3,30,26,Male,Right,195,Block 2,0.8001067999284714,0.025,true,building,building,occlusion,high,mask,partial viewing,many small,Stimulus\all_stim\occlusion\partialviewing\manysmall\high\manysmall_partialViewing_high_building8.png,mask_img/000000046245.png,experiment,i,i,628.2326294999802
V3,30,26,Male,Right,196,Block 2,0.7211577999405563,0.05,true,tree,tree,occlusion,high,mask,partial viewing,many small,Stimulus\all_stim\occlusion\partialviewing\manysmall\high\manysmall_partialViewing_high_tree6.png,mask_img/000000053539.png,experiment,e,e,629.9285982999718
V3,30,26,Male,Right,197,Block 2,0.8727811001008376,0.1,true,firehydrant,firehydrant,occlusion,high,mask,partial viewing,few large,Stimulus\all_stim\occlusion\partialviewing\fewlarge\high\fewlarge_partialViewing_high_firehydrant8.png,mask_img/000000019528.png,experiment,w,w,631.6324949000264
V3,30,26,Male,Right,198,Block 2,0.6740692000603303,0.1,true,bus,bus,occlusion,control,mask,partial viewing,few large,Stimulus\all_stim\occlusion\partialviewing\fewlarge\control\fewlarge_partialViewing_control_bus4.png,mask_img/000000005574.png,experiment,q,q,633.0006286000134
V3,30,26,Male,Right,199,Block 2,0.9652256000554189,0.05,true,bird,bird,occlusion,high,mask,partial viewing,few large,Stimulus\all_stim\occlusion\partialviewing\fewlarge\high\fewlarge_partialViewing_high_bird1.png,mask_img/000000013061.png,experiment,o,o,635.0805506999604
V3,30,26,Male,Right,200,Block 2,1.3365165999857709,0.025,true,cat,cat,occlusion,control,mask,partial viewing,few large,Stimulus\all_stim\occlusion\partialviewing\fewlarge\control\fewlarge_partialViewing_control_cat4.png,mask_img/000000006842.png,experiment,u,u,637.4970126999542
V3,30,26,Male,Right,201,Block 2,0.754099200014025,0.025,true,person,person,occlusion,low,mask,partial viewing,few large,Stimulus\all_stim\occlusion\partialviewing\fewlarge\low\fewlarge_partialViewing_low_person4.png,mask_img/000000029730.png,experiment,p,p,638.9045016999589
V3,30,26,Male,Right,202,Block 2,1.200109599973075,0.1,true,cat,cat,occlusion,low,mask,partial viewing,few large,Stimulus\all_stim\occlusion\partialviewing\fewlarge\low\fewlarge_partialViewing_low_cat3.png,mask_img/000000027556.png,experiment,u,u,641.2168077999959
V3,30,26,Male,Right,203,Block 2,0.721515899989754,0.025,true,bird,bird,occlusion,high,mask,partial viewing,many small,Stimulus\all_stim\occlusion\partialviewing\manysmall\high\manysmall_partialViewing_high_bird8.png,mask_img/000000044831.png,experiment,o,o,642.7292443999322
V3,30,26,Male,Right,204,Block 2,1.2561693000607193,0.1,true,tree,tree,occlusion,high,mask,partial viewing,many small,Stimulus\all_stim\occlusion\partialviewing\manysmall\high\manysmall_partialViewing_high_tree3.png,mask_img/000000052936.png,experiment,e,e,644.818031999981
V3,30,26,Male,Right,205,Block 2,1.356912299990654,0.025,true,cat,cat,occlusion,low,mask,partial viewing,many small,Stimulus\all_stim\occlusion\partialviewing\manysmall\low\manysmall_partialViewing_low_cat4.png,mask_img/000000059483.png,experiment,u,u,646.9925626999466
V3,30,26,Male,Right,206,Block 2,0.7350392999360338,0.05,true,firehydrant,firehydrant,occlusion,control,mask,partial viewing,few large,Stimulus\all_stim\occlusion\partialviewing\fewlarge\control\fewlarge_partialViewing_control_firehydrant8.png,mask_img/000000008193.png,experiment,w,w,648.512459199992
V3,30,26,Male,Right,207,Block 2,0.6157320999773219,0.05,true,bus,bus,occlusion,control,mask,partial viewing,many small,Stimulus\all_stim\occlusion\partialviewing\manysmall\control\manysmall_partialViewing_control_bus1.png,mask_img/000000036255.png,experiment,q,q,649.8167584999464
V3,30,26,Male,Right,208,Block 2,1.1424206000519916,0.025,true,building,building,occlusion,low,mask,partial viewing,few large,Stimulus\all_stim\occlusion\partialviewing\fewlarge\low\fewlarge_partialViewing_low_building2.png,mask_img/000000024702.png,experiment,i,i,651.7526939000236
V3,30,26,Male,Right,209,Block 2,1.1422347999177873,0.025,true,banana,banana,occlusion,control,mask,partial viewing,few large,Stimulus\all_stim\occlusion\partialviewing\fewlarge\control\fewlarge_partialViewing_control_banana10.png,mask_img/000000000109.png,experiment,r,r,653.9526540000224
V3,30,26,Male,Right,210,Block 2,2.282557100057602,0.05,false,cat,bird,occlusion,high,mask,partial viewing,many small,Stimulus\all_stim\occlusion\partialviewing\manysmall\high\manysmall_partialViewing_high_cat9.png,mask_img/000000049933.png,experiment,o,u,656.9366032000398
V3,30,26,Male,Right,211,Block 2,1.1097329000476748,0.025,false,banana,bird,occlusion,high,mask,partial viewing,many small,Stimulus\all_stim\occlusion\partialviewing\manysmall\high\manysmall_partialViewing_high_banana10.png,mask_img/000000042196.png,experiment,o,r,659.1685519999592
V3,30,26,Male,Right,212,Block 2,0.7891856000060216,0.1,true,cat,cat,occlusion,control,mask,partial viewing,many small,Stimulus\all_stim\occlusion\partialviewing\manysmall\control\manysmall_partialViewing_control_cat7.png,mask_img/000000038798.png,experiment,u,u,660.8808751000324
V3,30,26,Male,Right,213,Block 2,0.6732018999755383,0.1,true,building,building,occlusion,high,mask,partial viewing,many small,Stimulus\all_stim\occlusion\partialviewing\manysmall\high\manysmall_partialViewing_high_building5.png,mask_img/000000046029.png,experiment,i,i,662.3445997999515
V3,30,26,Male,Right,214,Block 2,1.3753256999189034,0.1,true,cat,cat,occlusion,high,mask,partial viewing,many small,Stimulus\all_stim\occlusion\partialviewing\manysmall\high\manysmall_partialViewing_high_cat10.png,mask_img/000000048929.png,experiment,u,u,664.4005172000034
V3,30,26,Male,Right,215,Block 2,0.7797224000096321,0.05,true,banana,banana,occlusion,low,mask,partial viewing,few large,Stimulus\all_stim\occlusion\partialviewing\fewlarge\low\fewlarge_partialViewing_low_banana4.png,mask_img/000000023015.png,experiment,r,r,666.0567572000436
V3,30,26,Male,Right,216,Block 2,0.7221178999170661,0.025,true,person,person,occlusion,high,mask,partial viewing,few large,Stimulus\all_stim\occlusion\partialviewing\fewlarge\high\fewlarge_partialViewing_high_person7.png,mask_img/000000020421.png,experiment,p,p,667.8727205999894
V3,30,26,Male,Right,217,Block 2,1.32303079997655,0.1,false,banana,tree,occlusion,low,mask,partial viewing,few large,Stimulus\all_stim\occlusion\partialviewing\fewlarge\low\fewlarge_partialViewing_low_banana2.png,mask_img/000000022983.png,experiment,e,r,669.8582825999474
V3,30,26,Male,Right,218,Block 2,1.2349942000582814,0.05,true,bird,bird,occlusion,low,mask,partial viewing,many small,Stimulus\all_stim\occlusion\partialviewing\manysmall\low\manysmall_partialViewing_low_bird2.png,mask_img/000000055737.png,experiment,o,o,672.0165621000342
V3,30,26,Male,Right,219,Block 2,0.808840100071393,0.025,true,banana,banana,occlusion,low,mask,partial viewing,many small,Stimulus\all_stim\occlusion\partialviewing\manysmall\low\manysmall_partialViewing_low_banana6.png,mask_img/000000055460.png,experiment,r,r,673.7365652000299
V3,30,26,Male,Right,220,Block 2,1.734741499996744,0.025,true,bird,bird,occlusion,low,mask,partial viewing,many small,Stimulus\all_stim\occlusion\partialviewing\manysmall\low\manysmall_partialViewing_low_bird3.png,mask_img/000000055849.png,experiment,o,o,676.5287370999577
V3,30,26,Male,Right,221,Block 2,0.849069399992004,0.1,false,cat,bird,occlusion,high,mask,partial viewing,many small,Stimulus\all_stim\occlusion\partialviewing\manysmall\high\manysmall_partialViewing_high_cat3.png,mask_img/000000049254.png,experiment,o,u,678.4248059999663
V3,30,26,Male,Right,222,Block 2,0.8567754999967292,0.1,true,person,person,occlusion,high,mask,partial viewing,many small,Stimulus\all_stim\occlusion\partialviewing\manysmall\high\manysmall_partialViewing_high_person2.png,mask_img/000000051461.png,experiment,p,p,680.4327512000455
V3,30,26,Male,Right,223,Block 2,0.991277499939315,0.05,true,banana,banana,occlusion,control,mask,partial viewing,few large,Stimulus\all_stim\occlusion\partialviewing\fewlarge\control\fewlarge_partialViewing_control_banana8.png,mask_img/000000000690.png,experiment,r,r,682.5206151000457
V3,30,26,Male,Right,224,Block 2,0.8069573000539094,0.1,false,firehydrant,person,occlusion,high,mask,partial viewing,many small,Stimulus\all_stim\occlusion\partialviewing\manysmall\high\manysmall_partialViewing_high_firehydrant10.png,mask_img/000000050148.png,experiment,p,w,684.1686145999702
V3,30,26,Male,Right,225,Block 2,1.1157040999969468,0.05,true,cat,cat,occlusion,control,mask,partial viewing,many small,Stimulus\all_stim\occlusion\partialviewing\manysmall\control\manysmall_partialViewing_control_cat7.png,mask_img/000000038798.png,experiment,u,u,686.1447228000034
V3,30,26,Male,Right,226,Block 2,1.0859541000099853,0.05,true,tree,tree,occlusion,low,mask,partial viewing,few large,Stimulus\all_stim\occlusion\partialviewing\fewlarge\low\fewlarge_partialViewing_low_tree8.png,mask_img/000000032918.png,experiment,e,e,688.1687691999832
V3,30,26,Male,Right,227,Block 2,0.7795435999287292,0.1,true,person,person,occlusion,control,mask,partial viewing,few large,Stimulus\all_stim\occlusion\partialviewing\fewlarge\control\fewlarge_partialViewing_control_person9.png,mask_img/000000009809.png,experiment,p,p,689.9525670999428
V3,30,26,Male,Right,228,Block 2,1.0823352000443265,0.05,true,building,building,occlusion,control,mask,partial viewing,few large,Stimulus\all_stim\occlusion\partialviewing\fewlarge\control\fewlarge_partialViewing_control_building4.png,mask_img/000000004239.png,experiment,i,i,691.7689905000152
V3,30,26,Male,Right,229,Block 2,1.9265791999641806,0.025,true,firehydrant,firehydrant,occlusion,low,mask,partial viewing,few large,Stimulus\all_stim\occlusion\partialviewing\fewlarge\low\fewlarge_partialViewing_low_firehydrant8.png,mask_img/000000028988.png,experiment,w,w,694.6107343999902
V3,30,26,Male,Right,230,Block 2,0.782133899978362,0.05,true,bus,bus,occlusion,low,mask,partial viewing,many small,Stimulus\all_stim\occlusion\partialviewing\manysmall\low\manysmall_partialViewing_low_bus7.png,mask_img/000000058822.png,experiment,q,q,696.1765551000135
V3,30,26,Male,Right,231,Block 2,1.1168077000183985,0.05,true,tree,tree,occlusion,high,mask,partial viewing,few large,Stimulus\all_stim\occlusion\partialviewing\fewlarge\high\fewlarge_partialViewing_high_tree6.png,mask_img/000000022142.png,experiment,e,e,698.056828300003
V3,30,26,Male,Right,232,Block 2,2.9338431000942364,0.025,false,cat,bird,occlusion,high,mask,partial viewing,many small,Stimulus\all_stim\occlusion\partialviewing\manysmall\high\manysmall_partialViewing_high_cat9.png,mask_img/000000049933.png,experiment,o,u,701.76897189999
V3,30,26,Male,Right,233,Block 2,1.0278009999310598,0.05,true,banana,banana,occlusion,high,mask,partial viewing,few large,Stimulus\all_stim\occlusion\partialviewing\fewlarge\high\fewlarge_partialViewing_high_banana9.png,mask_img/000000012999.png,experiment,r,r,703.5129059000174
V3,30,26,Male,Right,234,Block 2,0.9919949000468478,0.025,true,tree,tree,occlusion,control,mask,partial viewing,many small,Stimulus\all_stim\occlusion\partialviewing\manysmall\control\manysmall_partialViewing_control_tree4.png,mask_img/000000041022.png,experiment,e,e,705.6885770999361
V3,30,26,Male,Right,235,Block 2,1.1952032999834046,0.025,true,bus,bus,occlusion,high,mask,partial viewing,many small,Stimulus\all_stim\occlusion\partialviewing\manysmall\high\manysmall_partialViewing_high_bus2.png,mask_img/000000046852.png,experiment,q,q,707.560628999956
V3,30,26,Male,Right,236,Block 2,1.9615065000252798,0.025,true,bird,bird,occlusion,control,mask,partial viewing,many small,Stimulus\all_stim\occlusion\partialviewing\manysmall\control\manysmall_partialViewing_control_bird1.png,mask_img/000000034113.png,experiment,o,o,710.3526004999876
V3,30,26,Male,Right,237,Block 2,0.6508924000663683,0.025,true,person,person,occlusion,high,mask,partial viewing,few large,Stimulus\all_stim\occlusion\partialviewing\fewlarge\high\fewlarge_partialViewing_high_person9.png,mask_img/000000021003.png,experiment,p,p,711.7286829999648
V3,30,26,Male,Right,238,Block 2,1.189785199938342,0.05,true,building,building,occlusion,high,mask,partial viewing,many small,Stimulus\all_stim\occlusion\partialviewing\manysmall\high\manysmall_partialViewing_high_building7.png,mask_img/000000046171.png,experiment,i,i,713.6806795999873
V3,30,26,Male,Right,239,Block 2,0.8063930999487638,0.05,true,building,building,occlusion,low,mask,partial viewing,few large,Stimulus\all_stim\occlusion\partialviewing\fewlarge\low\fewlarge_partialViewing_low_building2.png,mask_img/000000024702.png,experiment,i,i,715.5143448000308
V3,30,26,Male,Right,240,Block 2,0.7095893999794498,0.1,true,person,person,occlusion,control,mask,partial viewing,few large,Stimulus\all_stim\occlusion\partialviewing\fewlarge\control\fewlarge_partialViewing_control_person1.png,mask_img/000000008341.png,experiment,p,p,717.2806973999832
V3,30,26,Male,Right,241,Block 2,1.8454881999641657,0.1,false,cat,bird,occlusion,high,mask,partial viewing,few large,Stimulus\all_stim\occlusion\partialviewing\fewlarge\high\fewlarge_partialViewing_high_cat8.png,mask_img/000000017791.png,experiment,o,u,720.0585351999616
V3,30,26,Male,Right,242,Block 2,1.028466899995692,0.1,true,tree,tree,occlusion,control,mask,partial viewing,few large,Stimulus\all_stim\occlusion\partialviewing\fewlarge\control\fewlarge_partialViewing_control_tree2.png,mask_img/000000010560.png,experiment,e,e,721.9928407999687
V3,30,26,Male,Right,243,Block 2,0.7017886999528855,0.025,true,person,person,occlusion,control,mask,partial viewing,many small,Stimulus\all_stim\occlusion\partialviewing\manysmall\control\manysmall_partialViewing_control_person1.png,mask_img/000000039656.png,experiment,p,p,723.8165270000463
V3,30,26,Male,Right,244,Block 2,0.7050607000710443,0.05,true,person,person,occlusion,control,mask,partial viewing,few large,Stimulus\all_stim\occlusion\partialviewing\fewlarge\control\fewlarge_partialViewing_control_person4.png,mask_img/000000009178.png,experiment,p,p,725.5844321999466
V3,30,26,Male,Right,245,Block 2,1.5401532999239862,0.025,true,building,building,occlusion,control,mask,partial viewing,few large,Stimulus\all_stim\occlusion\partialviewing\fewlarge\control\fewlarge_partialViewing_control_building7.png,mask_img/000000004936.png,experiment,i,i,727.9768706000177
V3,30,26,Male,Right,246,Block 2,1.0700056999921799,0.025,true,firehydrant,firehydrant,occlusion,low,mask,partial viewing,many small,Stimulus\all_stim\occlusion\partialviewing\manysmall\low\manysmall_partialViewing_low_firehydrant6.png,mask_img/000000060647.png,experiment,w,w,729.9365243000211
V3,30,26,Male,Right,247,Block 2,0.6643342000897974,0.025,true,firehydrant,firehydrant,occlusion,control,mask,partial viewing,many small,Stimulus\all_stim\occlusion\partialviewing\manysmall\control\manysmall_partialViewing_control_firehydrant10.png,mask_img/000000039053.png,experiment,w,w,731.6178557999665
V3,30,26,Male,Right,248,Block 2,0.5982203000457957,0.1,true,bus,bus,occlusion,low,mask,partial viewing,few large,Stimulus\all_stim\occlusion\partialviewing\fewlarge\low\fewlarge_partialViewing_low_bus6.png,mask_img/000000026503.png,experiment,q,q,733.0162213000003
V3,30,26,Male,Right,249,Block 2,0.6180792999221012,0.025,true,firehydrant,firehydrant,occlusion,control,mask,partial viewing,few large,Stimulus\all_stim\occlusion\partialviewing\fewlarge\control\fewlarge_partialViewing_control_firehydrant1.png,mask_img/000000007740.png,experiment,w,w,734.5124366999371
V3,30,26,Male,Right,250,Block 2,0.5507864999817684,0.1,true,person,person,occlusion,high,mask,partial viewing,few large,Stimulus\all_stim\occlusion\partialviewing\fewlarge\high\fewlarge_partialViewing_high_person5.png,mask_img/000000020381.png,experiment,p,p,735.8993663999718
V3,30,26,Male,Right,251,Block 2,0.7112790000392124,0.025,true,tree,tree,occlusion,low,mask,partial viewing,few large,Stimulus\all_stim\occlusion\partialviewing\fewlarge\low\fewlarge_partialViewing_low_tree6.png,mask_img/000000032720.png,experiment,e,e,737.3527668999741
V3,30,26,Male,Right,252,Block 2,0.5836735999910161,0.1,true,person,person,occlusion,high,mask,partial viewing,few large,Stimulus\all_stim\occlusion\partialviewing\fewlarge\high\fewlarge_partialViewing_high_person7.png,mask_img/000000020421.png,experiment,p,p,738.9847747000167
V3,30,26,Male,Right,253,Block 2,0.7316124000353739,0.1,true,bus,bus,occlusion,low,mask,partial viewing,few large,Stimulus\all_stim\occlusion\partialviewing\fewlarge\low\fewlarge_partialViewing_low_bus3.png,mask_img/000000025997.png,experiment,q,q,740.8336427999893
V3,30,26,Male,Right,254,Block 2,1.268450399977155,0.1,true,banana,banana,occlusion,low,mask,partial viewing,many small,Stimulus\all_stim\occlusion\partialviewing\manysmall\low\manysmall_partialViewing_low_banana8.png,mask_img/000000055630.png,experiment,r,r,743.0651133999927
V3,30,26,Male,Right,255,Block 2,0.7691994999768212,0.05,true,firehydrant,firehydrant,occlusion,control,mask,partial viewing,many small,Stimulus\all_stim\occlusion\partialviewing\manysmall\control\manysmall_partialViewing_control_firehydrant8.png,mask_img/000000039553.png,experiment,w,w,744.9926217000466
V3,30,26,Male,Right,256,Block 2,0.6177820001030341,0.025,true,person,person,occlusion,control,mask,partial viewing,few large,Stimulus\all_stim\occlusion\partialviewing\fewlarge\control\fewlarge_partialViewing_control_person8.png,mask_img/000000009729.png,experiment,p,p,746.6246530000353
V3,30,26,Male,Right,257,Block 2,0.6253734999336302,0.025,true,person,person,occlusion,high,mask,partial viewing,few large,Stimulus\all_stim\occlusion\partialviewing\fewlarge\high\fewlarge_partialViewing_high_person5.png,mask_img/000000020381.png,experiment,p,p,747.9844905999489
V3,30,26,Male,Right,258,Block 2,0.6289092999650165,0.1,true,person,person,occlusion,low,mask,partial viewing,many small,Stimulus\all_stim\occlusion\partialviewing\manysmall\low\manysmall_partialViewing_low_person4.png,mask_img/000000062131.png,experiment,p,p,749.2883046999341
V3,30,26,Male,Right,259,Block 2,0.9397064000368118,0.1,true,banana,banana,occlusion,high,mask,partial viewing,few large,Stimulus\all_stim\occlusion\partialviewing\fewlarge\high\fewlarge_partialViewing_high_banana2.png,mask_img/000000012179.png,experiment,r,r,751.2325312000467
V3,30,26,Male,Right,260,Block 2,1.1527968000154942,0.025,true,building,building,occlusion,high,mask,partial viewing,many small,Stimulus\all_stim\occlusion\partialviewing\manysmall\high\manysmall_partialViewing_high_building10.png,mask_img/000000044989.png,experiment,i,i,753.1687311000424
V3,30,26,Male,Right,261,Block 2,0.7842039000242949,0.025,true,firehydrant,firehydrant,occlusion,high,mask,partial viewing,few large,Stimulus\all_stim\occlusion\partialviewing\fewlarge\high\fewlarge_partialViewing_high_firehydrant2.png,mask_img/000000018743.png,experiment,w,w,755.2005638999399
V3,30,26,Male,Right,262,Block 2,1.030729899997823,0.05,true,building,building,occlusion,high,mask,partial viewing,few large,Stimulus\all_stim\occlusion\partialviewing\fewlarge\high\fewlarge_partialViewing_high_building5.png,mask_img/000000014759.png,experiment,i,i,757.1844964999473
V3,30,26,Male,Right,263,Block 2,1.0201413999311626,0.025,true,tree,tree,occlusion,low,mask,partial viewing,few large,Stimulus\all_stim\occlusion\partialviewing\fewlarge\low\fewlarge_partialViewing_low_tree2.png,mask_img/000000031601.png,experiment,e,e,758.9444867999991
V3,30,26,Male,Right,264,Block 2,1.1789488999638706,0.05,true,building,building,occlusion,high,mask,partial viewing,few large,Stimulus\all_stim\occlusion\partialviewing\fewlarge\high\fewlarge_partialViewing_high_building3.png,mask_img/000000014567.png,experiment,i,i,761.1606217999943
V3,30,26,Male,Right,265,Block 2,1.2984078000299633,0.05,false,bus,building,occlusion,low,mask,partial viewing,many small,Stimulus\all_stim\occlusion\partialviewing\manysmall\low\manysmall_partialViewing_low_bus2.png,mask_img/000000058627.png,experiment,i,q,763.4329190000426
V3,30,26,Male,Right,266,Block 2,1.5063838000642136,0.05,true,cat,cat,occlusion,high,mask,partial viewing,many small,Stimulus\all_stim\occlusion\partialviewing\manysmall\high\manysmall_partialViewing_high_cat1.png,mask_img/000000048664.png,experiment,u,u,765.7046193999704
V3,30,26,Male,Right,267,Block 2,1.1210762999253348,0.05,true,bird,bird,occlusion,high,mask,partial viewing,many small,Stimulus\all_stim\occlusion\partialviewing\manysmall\high\manysmall_partialViewing_high_bird1.png,mask_img/000000043966.png,experiment,o,o,767.5286774999695
V3,30,26,Male,Right,268,Block 2,0.8462375999661162,0.1,true,cat,cat,occlusion,high,mask,partial viewing,many small,Stimulus\all_stim\occlusion\partialviewing\manysmall\high\manysmall_partialViewing_high_cat8.png,mask_img/000000049763.png,experiment,u,u,769.520805099979
V3,30,26,Male,Right,269,Block 2,1.0086680999957025,0.1,true,cat,cat,occlusion,control,mask,partial viewing,few large,Stimulus\all_stim\occlusion\partialviewing\fewlarge\control\fewlarge_partialViewing_control_cat6.png,mask_img/000000007179.png,experiment,u,u,771.3524632999906
V3,30,26,Male,Right,270,Block 2,1.0285459000151604,0.025,false,person,bird,occlusion,high,mask,partial viewing,many small,Stimulus\all_stim\occlusion\partialviewing\manysmall\high\manysmall_partialViewing_high_person7.png,mask_img/000000052562.png,experiment,o,p,773.5604515000014
V3,30,26,Male,Right,271,Block 2,1.1025006000418216,0.025,false,building,banana,occlusion,low,mask,partial viewing,many small,Stimulus\all_stim\occlusion\partialviewing\manysmall\low\manysmall_partialViewing_low_building4.png,mask_img/000000057782.png,experiment,r,i,775.8085509999655
V3,30,26,Male,Right,272,Block 2,0.8897319999523461,0.1,true,banana,banana,occlusion,high,mask,partial viewing,few large,Stimulus\all_stim\occlusion\partialviewing\fewlarge\high\fewlarge_partialViewing_high_banana6.png,mask_img/000000012548.png,experiment,r,r,777.5689153999556
V3,30,26,Male,Right,273,Block 2,0.9865466000046581,0.05,true,tree,tree,occlusion,high,mask,partial viewing,few large,Stimulus\all_stim\occlusion\partialviewing\fewlarge\high\fewlarge_partialViewing_high_tree5.png,mask_img/000000022102.png,experiment,e,e,779.4486072999425
V3,30,26,Male,Right,274,Block 2,0.9663726999424398,0.025,true,tree,tree,occlusion,high,mask,partial viewing,many small,Stimulus\all_stim\occlusion\partialviewing\manysmall\high\manysmall_partialViewing_high_tree6.png,mask_img/000000053539.png,experiment,e,e,781.1925748999929
V3,30,26,Male,Right,275,Block 2,0.6726857000030577,0.05,true,bus,bus,occlusion,low,mask,partial viewing,few large,Stimulus\all_stim\occlusion\partialviewing\fewlarge\low\fewlarge_partialViewing_low_bus6.png,mask_img/000000026503.png,experiment,q,q,782.8407983999932
V3,30,26,Male,Right,276,Block 2,0.7510168000590056,0.1,true,firehydrant,firehydrant,occlusion,low,mask,partial viewing,many small,Stimulus\all_stim\occlusion\partialviewing\manysmall\low\manysmall_partialViewing_low_firehydrant9.png,mask_img/000000061693.png,experiment,w,w,784.2644584999653
V3,30,26,Male,Right,277,Block 2,0.717328800004907,0.1,true,bus,bus,occlusion,low,mask,partial viewing,many small,Stimulus\all_stim\occlusion\partialviewing\manysmall\low\manysmall_partialViewing_low_bus1.png,mask_img/000000058232.png,experiment,q,q,785.8725259000203
V3,30,26,Male,Right,278,Block 2,1.2613305998966098,0.025,true,tree,tree,occlusion,low,mask,partial viewing,few large,Stimulus\all_stim\occlusion\partialviewing\fewlarge\low\fewlarge_partialViewing_low_tree8.png,mask_img/000000032918.png,experiment,e,e,788.0729131000116
V3,30,26,Male,Right,279,Block 2,1.0843014999991283,0.1,true,building,building,occlusion,low,mask,partial viewing,many small,Stimulus\all_stim\occlusion\partialviewing\manysmall\low\manysmall_partialViewing_low_building10.png,mask_img/000000057068.png,experiment,i,i,790.1925443999935
V3,30,26,Male,Right,280,Block 2,1.0842474999371916,0.1,true,tree,tree,occlusion,low,mask,partial viewing,many small,Stimulus\all_stim\occlusion\partialviewing\manysmall\low\manysmall_partialViewing_low_tree7.png,mask_img/000000063754.png,experiment,e,e,792.1445387999993
V3,30,26,Male,Right,281,Block 2,1.0553677999414504,0.05,true,bird,bird,occlusion,control,mask,partial viewing,many small,Stimulus\all_stim\occlusion\partialviewing\manysmall\control\manysmall_partialViewing_control_bird10.png,mask_img/000000034304.png,experiment,o,o,794.1046039999928
V3,30,26,Male,Right,282,Block 2,0.7934182999888435,0.05,true,firehydrant,firehydrant,occlusion,control,mask,partial viewing,many small,Stimulus\all_stim\occlusion\partialviewing\manysmall\control\manysmall_partialViewing_control_firehydrant4.png,mask_img/000000039141.png,experiment,w,w,795.7849267999409
V3,30,26,Male,Right,283,Block 2,1.245817600050941,0.05,true,tree,tree,occlusion,control,mask,partial viewing,few large,Stimulus\all_stim\occlusion\partialviewing\fewlarge\control\fewlarge_partialViewing_control_tree7.png,mask_img/000000011504.png,experiment,e,e,798.1208253999939
V3,30,26,Male,Right,284,Block 2,1.3732117000035942,0.05,false,cat,building,occlusion,low,mask,partial viewing,few large,Stimulus\all_stim\occlusion\partialviewing\fewlarge\low\fewlarge_partialViewing_low_cat2.png,mask_img/000000027371.png,experiment,i,u,800.3927302999655
V3,30,26,Male,Right,285,Block 2,1.25582940003369,0.1,true,banana,banana,occlusion,control,mask,partial viewing,few large,Stimulus\all_stim\occlusion\partialviewing\fewlarge\control\fewlarge_partialViewing_control_banana7.png,mask_img/000000000626.png,experiment,r,r,802.6406898000278
V3,30,26,Male,Right,286,Block 2,1.1117340999189764,0.05,true,bird,bird,occlusion,low,mask,partial viewing,many small,Stimulus\all_stim\occlusion\partialviewing\manysmall\low\manysmall_partialViewing_low_bird5.png,mask_img/000000055942.png,experiment,o,o,804.8408276999835
V3,30,26,Male,Right,287,Block 2,0.6984127999749035,0.05,true,building,building,occlusion,control,mask,partial viewing,many small,Stimulus\all_stim\occlusion\partialviewing\manysmall\control\manysmall_partialViewing_control_building2.png,mask_img/000000035864.png,experiment,i,i,806.6408320999471
V3,30,26,Male,Right,288,Block 2,0.9682576999766752,0.05,true,bus,bus,occlusion,high,mask,partial viewing,many small,Stimulus\all_stim\occlusion\partialviewing\manysmall\high\manysmall_partialViewing_high_bus2.png,mask_img/000000046852.png,experiment,q,q,811.3687353000278
V3,30,26,Male,Right,289,Block 3,1.0664747001137584,0.025,true,banana,banana,occlusion,high,mask,partial viewing,few large,Stimulus\all_stim\occlusion\partialviewing\fewlarge\high\fewlarge_partialViewing_high_banana3.png,mask_img/000000012313.png,experiment,r,r,813.5287144000176
V3,30,26,Male,Right,290,Block 3,1.0650746999308467,0.1,false,cat,bird,occlusion,high,mask,partial viewing,few large,Stimulus\all_stim\occlusion\partialviewing\fewlarge\high\fewlarge_partialViewing_high_cat10.png,mask_img/000000017308.png,experiment,o,u,815.448784600012
V3,30,26,Male,Right,291,Block 3,0.6279761999612674,0.05,true,person,person,occlusion,control,mask,partial viewing,many small,Stimulus\all_stim\occlusion\partialviewing\manysmall\control\manysmall_partialViewing_control_person1.png,mask_img/000000039656.png,experiment,p,p,817.2165424999548
V3,30,26,Male,Right,292,Block 3,0.7008204999146983,0.05,true,bus,bus,occlusion,control,mask,partial viewing,many small,Stimulus\all_stim\occlusion\partialviewing\manysmall\control\manysmall_partialViewing_control_bus5.png,mask_img/000000037140.png,experiment,q,q,818.616995099932
V3,30,26,Male,Right,293,Block 3,1.2043119000736624,0.1,true,banana,banana,occlusion,low,mask,partial viewing,few large,Stimulus\all_stim\occlusion\partialviewing\fewlarge\low\fewlarge_partialViewing_low_banana9.png,mask_img/000000023967.png,experiment,r,r,820.8245500000194
V3,30,26,Male,Right,294,Block 3,0.959625200019218,0.05,true,tree,tree,occlusion,high,mask,partial viewing,many small,Stimulus\all_stim\occlusion\partialviewing\manysmall\high\manysmall_partialViewing_high_tree9.png,mask_img/000000054336.png,experiment,e,e,822.5285077999579
V3,30,26,Male,Right,295,Block 3,0.7652422999963164,0.1,true,banana,banana,occlusion,low,mask,partial viewing,few large,Stimulus\all_stim\occlusion\partialviewing\fewlarge\low\fewlarge_partialViewing_low_banana8.png,mask_img/000000023656.png,experiment,r,r,824.0726076000137
V3,30,26,Male,Right,296,Block 3,0.9252531999954954,0.1,true,bird,bird,occlusion,control,mask,partial viewing,few large,Stimulus\all_stim\occlusion\partialviewing\fewlarge\control\fewlarge_partialViewing_control_bird10.png,mask_img/000000001053.png,experiment,o,o,825.7285088000353
V3,30,26,Male,Right,297,Block 3,0.7441917000105605,0.1,true,firehydrant,firehydrant,occlusion,low,mask,partial viewing,many small,Stimulus\all_stim\occlusion\partialviewing\manysmall\low\manysmall_partialViewing_low_firehydrant10.png,mask_img/000000060529.png,experiment,w,w,827.1364700000267
V3,30,26,Male,Right,298,Block 3,1.001447599963285,0.025,true,cat,cat,occlusion,control,mask,partial viewing,many small,Stimulus\all_stim\occlusion\partialviewing\manysmall\control\manysmall_partialViewing_control_cat1.png,mask_img/000000038177.png,experiment,u,u,829.0884689999511
V3,30,26,Male,Right,299,Block 3,0.701218199916184,0.025,true,firehydrant,firehydrant,occlusion,low,mask,partial viewing,few large,Stimulus\all_stim\occlusion\partialviewing\fewlarge\low\fewlarge_partialViewing_low_firehydrant4.png,mask_img/000000028671.png,experiment,w,w,830.6644724999787
V3,30,26,Male,Right,300,Block 3,0.5695147000951692,0.1,true,bus,bus,occlusion,low,mask,partial viewing,many small,Stimulus\all_stim\occlusion\partialviewing\manysmall\low\manysmall_partialViewing_low_bus10.png,mask_img/000000058595.png,experiment,q,q,832.3684168000473
V3,30,26,Male,Right,301,Block 3,1.0576367999892682,0.025,true,bird,bird,occlusion,low,mask,partial viewing,many small,Stimulus\all_stim\occlusion\partialviewing\manysmall\low\manysmall_partialViewing_low_bird8.png,mask_img/000000056137.png,experiment,o,o,834.1849135999801
V3,30,26,Male,Right,302,Block 3,1.9000815000617877,0.1,true,person,person,occlusion,low,mask,partial viewing,many small,Stimulus\all_stim\occlusion\partialviewing\manysmall\low\manysmall_partialViewing_low_person8.png,mask_img/000000062420.png,experiment,p,p,837.0327077000402
V3,30,26,Male,Right,303,Block 3,0.7409285999601707,0.025,true,bus,bus,occlusion,low,mask,partial viewing,many small,Stimulus\all_stim\occlusion\partialviewing\manysmall\low\manysmall_partialViewing_low_bus8.png,mask_img/000000058873.png,experiment,q,q,838.6985483999597
V3,30,26,Male,Right,304,Block 3,1.0966473000589758,0.05,true,cat,cat,occlusion,low,mask,partial viewing,many small,Stimulus\all_stim\occlusion\partialviewing\manysmall\low\manysmall_partialViewing_low_cat7.png,mask_img/000000060158.png,experiment,u,u,840.7208731999854
V3,30,26,Male,Right,305,Block 3,0.7124055000022054,0.05,true,firehydrant,firehydrant,occlusion,high,mask,partial viewing,few large,Stimulus\all_stim\occlusion\partialviewing\fewlarge\high\fewlarge_partialViewing_high_firehydrant5.png,mask_img/000000018982.png,experiment,w,w,842.2084326000186
V3,30,26,Male,Right,306,Block 3,0.5684218999231234,0.05,true,person,person,occlusion,low,mask,partial viewing,few large,Stimulus\all_stim\occlusion\partialviewing\fewlarge\low\fewlarge_partialViewing_low_person6.png,mask_img/000000030267.png,experiment,p,p,843.4736876999959
V3,30,26,Male,Right,307,Block 3,0.8682959000580013,0.025,false,banana,bird,occlusion,high,mask,partial viewing,many small,Stimulus\all_stim\occlusion\partialviewing\manysmall\high\manysmall_partialViewing_high_banana9.png,mask_img/000000043579.png,experiment,o,r,845.2886212000158
V3,30,26,Male,Right,308,Block 3,0.8957133999792859,0.05,true,building,building,occlusion,high,mask,partial viewing,few large,Stimulus\all_stim\occlusion\partialviewing\fewlarge\high\fewlarge_partialViewing_high_building9.png,mask_img/000000015619.png,experiment,i,i,847.1924929999514
V3,30,26,Male,Right,309,Block 3,1.1814813999226317,0.025,true,bird,bird,occlusion,high,mask,partial viewing,few large,Stimulus\all_stim\occlusion\partialviewing\fewlarge\high\fewlarge_partialViewing_high_bird3.png,mask_img/000000013455.png,experiment,o,o,849.2088795000454
V3,30,26,Male,Right,310,Block 3,0.6627295999787748,0.025,true,person,person,occlusion,low,mask,partial viewing,few large,Stimulus\all_stim\occlusion\partialviewing\fewlarge\low\fewlarge_partialViewing_low_person10.png,mask_img/000000029128.png,experiment,p,p,850.8965749000199
V3,30,26,Male,Right,311,Block 3,1.4551652000518516,0.1,true,bird,bird,occlusion,high,mask,partial viewing,many small,Stimulus\all_stim\occlusion\partialviewing\manysmall\high\manysmall_partialViewing_high_bird7.png,mask_img/000000044580.png,experiment,o,o,853.0889369000215
V3,30,26,Male,Right,312,Block 3,0.7939169999444857,0.05,true,bird,bird,occlusion,control,mask,partial viewing,few large,Stimulus\all_stim\occlusion\partialviewing\fewlarge\control\fewlarge_partialViewing_control_bird6.png,mask_img/000000002337.png,experiment,o,o,854.8107088999823
V3,30,26,Male,Right,313,Block 3,0.9834378999657929,0.025,false,tree,cat,occlusion,low,mask,partial viewing,many small,Stimulus\all_stim\occlusion\partialviewing\manysmall\low\manysmall_partialViewing_low_tree8.png,mask_img/000000063804.png,experiment,u,e,856.8805265999399
V3,30,26,Male,Right,314,Block 3,0.8135673999786377,0.05,false,tree,bird,occlusion,high,mask,partial viewing,few large,Stimulus\all_stim\occlusion\partialviewing\fewlarge\high\fewlarge_partialViewing_high_tree1.png,mask_img/000000021206.png,experiment,o,e,858.8086932000006
V3,30,26,Male,Right,315,Block 3,0.9653781000524759,0.1,true,building,building,occlusion,high,mask,partial viewing,many small,Stimulus\all_stim\occlusion\partialviewing\manysmall\high\manysmall_partialViewing_high_building8.png,mask_img/000000046245.png,experiment,i,i,860.4645693999482
V3,30,26,Male,Right,316,Block 3,1.3363665000069886,0.025,true,bird,bird,occlusion,control,mask,partial viewing,few large,Stimulus\all_stim\occlusion\partialviewing\fewlarge\control\fewlarge_partialViewing_control_bird1.png,mask_img/000000000873.png,experiment,o,o,862.6725551999407
V3,30,26,Male,Right,317,Block 3,0.658801699988544,0.025,true,building,building,occlusion,low,mask,partial viewing,many small,Stimulus\all_stim\occlusion\partialviewing\manysmall\low\manysmall_partialViewing_low_building7.png,mask_img/000000058021.png,experiment,i,i,864.0007853000425
V3,30,26,Male,Right,318,Block 3,0.5724053999874741,0.05,true,cat,cat,occlusion,control,mask,partial viewing,few large,Stimulus\all_stim\occlusion\partialviewing\fewlarge\control\fewlarge_partialViewing_control_cat1.png,mask_img/000000006437.png,experiment,u,u,865.5821536999429
V3,30,26,Male,Right,319,Block 3,0.7001994999591261,0.025,true,building,building,occlusion,high,mask,partial viewing,many small,Stimulus\all_stim\occlusion\partialviewing\manysmall\high\manysmall_partialViewing_high_building6.png,mask_img/000000046155.png,experiment,i,i,867.2889777999371
V3,30,26,Male,Right,320,Block 3,0.6330104999942705,0.05,true,building,building,occlusion,control,mask,partial viewing,many small,Stimulus\all_stim\occlusion\partialviewing\manysmall\control\manysmall_partialViewing_control_building3.png,mask_img/000000035979.png,experiment,i,i,868.7364031999605
V3,30,26,Male,Right,321,Block 3,0.6409728999715298,0.05,true,bird,bird,occlusion,control,mask,partial viewing,many small,Stimulus\all_stim\occlusion\partialviewing\manysmall\control\manysmall_partialViewing_control_bird4.png,mask_img/000000034691.png,experiment,o,o,870.048411799944
V3,30,26,Male,Right,322,Block 3,0.8021779999835417,0.05,true,banana,banana,occlusion,control,mask,partial viewing,many small,Stimulus\all_stim\occlusion\partialviewing\manysmall\control\manysmall_partialViewing_control_banana8.png,mask_img/000000033904.png,experiment,r,r,871.7447129000211
V3,30,26,Male,Right,323,Block 3,0.5776892000576481,0.025,true,firehydrant,firehydrant,occlusion,control,mask,partial viewing,many small,Stimulus\all_stim\occlusion\partialviewing\manysmall\control\manysmall_partialViewing_control_firehydrant9.png,mask_img/000000039643.png,experiment,w,w,873.4666893000249
V3,30,26,Male,Right,324,Block 3,1.0805808000732213,0.05,true,building,building,occlusion,low,mask,partial viewing,many small,Stimulus\all_stim\occlusion\partialviewing\manysmall\low\manysmall_partialViewing_low_building5.png,mask_img/000000057930.png,experiment,i,i,875.3446277000476
V3,30,26,Male,Right,325,Block 3,0.9786184999393299,0.05,false,bus,building,occlusion,high,mask,partial viewing,many small,Stimulus\all_stim\occlusion\partialviewing\manysmall\high\manysmall_partialViewing_high_bus6.png,mask_img/000000047407.png,experiment,i,q,877.3045296999626
V3,30,26,Male,Right,326,Block 3,1.252223400049843,0.05,true,banana,banana,occlusion,high,mask,partial viewing,few large,Stimulus\all_stim\occlusion\partialviewing\fewlarge\high\fewlarge_partialViewing_high_banana2.png,mask_img/000000012179.png,experiment,r,r,879.2167313999962
V3,30,26,Male,Right,327,Block 3,0.9484162000007927,0.025,true,building,building,occlusion,low,mask,partial viewing,many small,Stimulus\all_stim\occlusion\partialviewing\manysmall\low\manysmall_partialViewing_low_building10.png,mask_img/000000057068.png,experiment,i,i,881.1286603999324
V3,30,26,Male,Right,328,Block 3,1.3472589999437332,0.025,true,bus,bus,occlusion,control,mask,partial viewing,many small,Stimulus\all_stim\occlusion\partialviewing\manysmall\control\manysmall_partialViewing_control_bus2.png,mask_img/000000036622.png,experiment,q,q,883.6325307999505
V3,30,26,Male,Right,329,Block 3,0.6915744000580162,0.1,true,bus,bus,occlusion,high,mask,partial viewing,few large,Stimulus\all_stim\occlusion\partialviewing\fewlarge\high\fewlarge_partialViewing_high_bus3.png,mask_img/000000015908.png,experiment,q,q,885.0007110999431
V3,30,26,Male,Right,330,Block 3,0.7835138000082225,0.025,false,person,bird,occlusion,high,mask,partial viewing,many small,Stimulus\all_stim\occlusion\partialviewing\manysmall\high\manysmall_partialViewing_high_person1.png,mask_img/000000051310.png,experiment,o,p,886.4724687000271
V3,30,26,Male,Right,331,Block 3,0.7643024000572041,0.1,true,building,building,occlusion,high,mask,partial viewing,few large,Stimulus\all_stim\occlusion\partialviewing\fewlarge\high\fewlarge_partialViewing_high_building1.png,mask_img/000000014335.png,experiment,i,i,887.9526660999982
V3,30,26,Male,Right,332,Block 3,0.7871912999544293,0.025,true,firehydrant,firehydrant,occlusion,high,mask,partial viewing,few large,Stimulus\all_stim\occlusion\partialviewing\fewlarge\high\fewlarge_partialViewing_high_firehydrant8.png,mask_img/000000019528.png,experiment,w,w,889.5145157999359
V3,30,26,Male,Right,333,Block 3,1.2778247999958694,0.025,true,building,building,occlusion,control,mask,partial viewing,few large,Stimulus\all_stim\occlusion\partialviewing\fewlarge\control\fewlarge_partialViewing_control_building10.png,mask_img/000000003225.png,experiment,i,i,891.7609558999538
V3,30,26,Male,Right,334,Block 3,0.9232232000213116,0.05,true,firehydrant,firehydrant,occlusion,high,mask,partial viewing,few large,Stimulus\all_stim\occlusion\partialviewing\fewlarge\high\fewlarge_partialViewing_high_firehydrant3.png,mask_img/000000018864.png,experiment,w,w,893.4965703999624
V3,30,26,Male,Right,335,Block 3,0.8333043999737129,0.025,true,tree,tree,occlusion,control,mask,partial viewing,many small,Stimulus\all_stim\occlusion\partialviewing\manysmall\control\manysmall_partialViewing_control_tree6.png,mask_img/000000041272.png,experiment,e,e,895.3764269000385
V3,30,26,Male,Right,336,Block 3,0.9404014999745414,0.025,false,tree,bird,occlusion,low,mask,partial viewing,many small,Stimulus\all_stim\occlusion\partialviewing\manysmall\low\manysmall_partialViewing_low_tree4.png,mask_img/000000063337.png,experiment,o,e,897.2344033999834
V3,30,26,Male,Right,337,Block 3,0.6424871999770403,0.025,true,person,person,occlusion,control,mask,partial viewing,many small,Stimulus\all_stim\occlusion\partialviewing\manysmall\control\manysmall_partialViewing_control_person4.png,mask_img/000000040042.png,experiment,p,p,898.7126938999863
