Version,pt_num,Age,Gender,Handedness,trial_nbr,block_number,rt,soa,acc,category,choiced_category,manipulation,difficulty,mask,type_occl,size_occl,filename,mask_filename,task,pressed_key,correct_key,Experiment Duration
V3,9,24,Male,Right,1,Training,2.6530158999958076,0.05,false,tree,cat,occlusion,high,mask,partial viewing,many small,Training_Stimulus\manysmall_partialViewing_high_tree9.png,mask_img/000000006263.png,training,u,r,69.52904880000278
V3,9,24,Male,Right,2,Training,1.716521099966485,0.05,true,tree,tree,occlusion,control,mask,partial viewing,few large,Training_Stimulus\fewlarge_partialViewing_control_tree9.png,mask_img/000000000626.png,training,r,r,72.7133407999645
V3,9,24,Male,Right,3,Training,1.3636150000384077,0.025,true,person,person,occlusion,control,mask,partial viewing,few large,Training_Stimulus\fewlarge_partialViewing_control_person189.png,mask_img/000000000595.png,training,q,q,75.16519739996875
V3,9,24,Male,Right,4,Training,1.662622299976647,0.1,true,firehydrant,firehydrant,occlusion,low,mask,partial viewing,few large,Training_Stimulus\fewlarge_partialViewing_low_firehydrant90.png,mask_img/000000003225.png,training,w,w,78.40959830000065
V3,9,24,Male,Right,5,Training,3.072678399970755,0.025,false,firehydrant,building,occlusion,low,mask,partial viewing,many small,Training_Stimulus\manysmall_partialViewing_low_firehydrant90.png,mask_img/000000006870.png,training,p,w,82.8088556000148
V3,9,24,Male,Right,6,Training,1.072622399951797,0.1,true,person,person,occlusion,control,mask,partial viewing,few large,Training_Stimulus\fewlarge_partialViewing_control_person189.png,mask_img/000000000595.png,training,q,q,85.29931600001873
V3,9,24,Male,Right,7,Training,1.5024112000246532,0.1,true,banana,banana,occlusion,control,mask,partial viewing,many small,Training_Stimulus\manysmall_partialViewing_control_banana454.png,mask_img/000000004239.png,training,e,e,88.1124122000183
V3,9,24,Male,Right,8,Training,1.7486806999659166,0.1,false,bus,cat,occlusion,control,mask,partial viewing,many small,Training_Stimulus\manysmall_partialViewing_control_bus180.png,mask_img/000000004936.png,training,u,i,91.3562751999707
V3,9,24,Male,Right,9,Training,4.349198000039905,0.025,false,banana,bus,occlusion,high,mask,partial viewing,many small,Training_Stimulus\manysmall_partialViewing_high_banana454.png,mask_img/000000005359.png,training,i,e,97.23408650001511
V3,9,24,Male,Right,10,Training,2.6062011999893,0.05,true,cat,cat,occlusion,high,mask,partial viewing,few large,Training_Stimulus\fewlarge_partialViewing_high_cat432.png,mask_img/000000001647.png,training,u,u,101.06030329997884
V3,9,24,Male,Right,11,Training,2.1431613999884576,0.05,false,bird,tree,occlusion,high,mask,partial viewing,few large,Training_Stimulus\fewlarge_partialViewing_high_bird4.png,mask_img/000000000731.png,training,r,o,104.4216481000185
V3,9,24,Male,Right,12,Training,2.223955300054513,0.025,false,bird,tree,occlusion,high,mask,partial viewing,few large,Training_Stimulus\fewlarge_partialViewing_high_bird4.png,mask_img/000000000731.png,training,r,o,108.08388290001312
V3,9,24,Male,Right,13,Training,2.225351499975659,0.025,false,firehydrant,bird,occlusion,high,mask,partial viewing,many small,Training_Stimulus\manysmall_partialViewing_high_firehydrant90.png,mask_img/000000006146.png,training,o,w,111.84462129999883
V3,9,24,Male,Right,14,Training,2.515603900013957,0.1,true,bus,bus,occlusion,high,mask,partial viewing,few large,Training_Stimulus\fewlarge_partialViewing_high_bus180.png,mask_img/000000001053.png,training,i,i,115.52836329996353
V3,9,24,Male,Right,15,Training,1.312844000000041,0.025,true,building,building,occlusion,control,mask,partial viewing,many small,Training_Stimulus\manysmall_partialViewing_control_building24.png,mask_img/000000004739.png,training,p,p,118.3371490999707
V3,9,24,Male,Right,16,Training,1.6583210999961011,0.1,true,tree,tree,occlusion,high,mask,partial viewing,few large,Training_Stimulus\fewlarge_partialViewing_high_tree9.png,mask_img/000000002197.png,training,r,r,121.53916559997015
V3,9,24,Male,Right,17,Training,2.135993400006555,0.025,true,bus,bus,occlusion,control,mask,partial viewing,few large,Training_Stimulus\fewlarge_partialViewing_control_bus180.png,mask_img/000000000394.png,training,i,i,124.78485549998004
V3,9,24,Male,Right,18,Training,2.206960799987428,0.1,true,banana,banana,occlusion,high,mask,partial viewing,few large,Training_Stimulus\fewlarge_partialViewing_high_banana454.png,mask_img/000000000690.png,training,e,e,128.47446669999044
V3,9,24,Male,Right,19,Training,1.4112145999679342,0.05,true,cat,cat,occlusion,control,mask,partial viewing,few large,Training_Stimulus\fewlarge_partialViewing_control_cat432.png,mask_img/000000000438.png,training,u,u,131.44777979998617
V3,9,24,Male,Right,20,Training,1.3859579999698326,0.05,true,bus,bus,occlusion,high,mask,partial viewing,few large,Training_Stimulus\fewlarge_partialViewing_high_bus180.png,mask_img/000000001053.png,training,i,i,134.27075769996736
V3,9,24,Male,Right,21,Training,1.2847061999491416,0.1,true,bus,bus,occlusion,low,mask,partial viewing,many small,Training_Stimulus\manysmall_partialViewing_low_bus180.png,mask_img/000000006709.png,training,i,i,136.940824099991
V3,9,24,Male,Right,1,Block 1,1.7765027999994345,0.025,true,bus,bus,occlusion,low,mask,partial viewing,few large,Stimulus\all_stim\occlusion\partialviewing\fewlarge\low\fewlarge_partialViewing_low_bus8.png,mask_img/000000026782.png,experiment,i,i,174.67335019999882
V3,9,24,Male,Right,2,Block 1,1.574817400018219,0.05,true,tree,tree,occlusion,control,mask,partial viewing,many small,Stimulus\all_stim\occlusion\partialviewing\manysmall\control\manysmall_partialViewing_control_tree5.png,mask_img/000000041174.png,experiment,r,r,176.96134669997264
V3,9,24,Male,Right,3,Block 1,1.1559280999936163,0.1,false,bird,cat,occlusion,control,mask,partial viewing,many small,Stimulus\all_stim\occlusion\partialviewing\manysmall\control\manysmall_partialViewing_control_bird1.png,mask_img/000000034113.png,experiment,u,o,179.2732886999729
V3,9,24,Male,Right,4,Block 1,0.9724240000359714,0.1,true,person,person,occlusion,high,mask,partial viewing,few large,Stimulus\all_stim\occlusion\partialviewing\fewlarge\high\fewlarge_partialViewing_high_person3.png,mask_img/000000020147.png,experiment,q,q,181.28876670001773
V3,9,24,Male,Right,5,Block 1,1.6030139999929816,0.05,true,tree,tree,occlusion,control,mask,partial viewing,few large,Stimulus\all_stim\occlusion\partialviewing\fewlarge\control\fewlarge_partialViewing_control_tree1.png,mask_img/000000010281.png,experiment,r,r,183.68899009999586
V3,9,24,Male,Right,6,Block 1,0.9385288000339642,0.1,true,building,building,occlusion,control,mask,partial viewing,few large,Stimulus\all_stim\occlusion\partialviewing\fewlarge\control\fewlarge_partialViewing_control_building4.png,mask_img/000000004239.png,experiment,p,p,185.53778919996694
V3,9,24,Male,Right,7,Block 1,0.9406542999786325,0.025,true,person,person,occlusion,high,mask,partial viewing,few large,Stimulus\all_stim\occlusion\partialviewing\fewlarge\high\fewlarge_partialViewing_high_person2.png,mask_img/000000019932.png,experiment,q,q,187.3131750000175
V3,9,24,Male,Right,8,Block 1,2.1457516999798827,0.05,false,banana,bird,occlusion,high,mask,partial viewing,many small,Stimulus\all_stim\occlusion\partialviewing\manysmall\high\manysmall_partialViewing_high_banana7.png,mask_img/000000043024.png,experiment,o,e,190.49730529997032
V3,9,24,Male,Right,9,Block 1,0.9145380000118166,0.1,true,person,person,occlusion,low,mask,partial viewing,few large,Stimulus\all_stim\occlusion\partialviewing\fewlarge\low\fewlarge_partialViewing_low_person5.png,mask_img/000000029964.png,experiment,q,q,192.440684399975
V3,9,24,Male,Right,10,Block 1,1.2617180999950506,0.05,true,banana,banana,occlusion,control,mask,partial viewing,few large,Stimulus\all_stim\occlusion\partialviewing\fewlarge\control\fewlarge_partialViewing_control_banana1.png,mask_img/000000000042.png,experiment,e,e,194.68113049998647
V3,9,24,Male,Right,11,Block 1,1.3061862000031397,0.025,true,bus,bus,occlusion,low,mask,partial viewing,few large,Stimulus\all_stim\occlusion\partialviewing\fewlarge\low\fewlarge_partialViewing_low_bus7.png,mask_img/000000026720.png,experiment,i,i,197.06489649997093
V3,9,24,Male,Right,12,Block 1,1.033939199987799,0.05,true,cat,cat,occlusion,control,mask,partial viewing,few large,Stimulus\all_stim\occlusion\partialviewing\fewlarge\control\fewlarge_partialViewing_control_cat9.png,mask_img/000000007558.png,experiment,u,u,198.99319100001594
V3,9,24,Male,Right,13,Block 1,1.1192799999844283,0.05,true,tree,tree,occlusion,high,mask,partial viewing,many small,Stimulus\all_stim\occlusion\partialviewing\manysmall\high\manysmall_partialViewing_high_tree5.png,mask_img/000000053410.png,experiment,r,r,201.08110509999096
V3,9,24,Male,Right,14,Block 1,1.6241459000157192,0.025,false,bird,tree,occlusion,high,mask,partial viewing,many small,Stimulus\all_stim\occlusion\partialviewing\manysmall\high\manysmall_partialViewing_high_bird9.png,mask_img/000000044946.png,experiment,r,o,203.48886529996525
V3,9,24,Male,Right,15,Block 1,1.1645261000376195,0.1,true,banana,banana,occlusion,control,mask,partial viewing,many small,Stimulus\all_stim\occlusion\partialviewing\manysmall\control\manysmall_partialViewing_control_banana3.png,mask_img/000000033323.png,experiment,e,e,205.5610140999779
V3,9,24,Male,Right,16,Block 1,1.878926900040824,0.1,true,bus,bus,occlusion,low,mask,partial viewing,few large,Stimulus\all_stim\occlusion\partialviewing\fewlarge\low\fewlarge_partialViewing_low_bus4.png,mask_img/000000026053.png,experiment,i,i,208.10507609997876
V3,9,24,Male,Right,17,Block 1,0.9567587000201456,0.05,true,person,person,occlusion,low,mask,partial viewing,many small,Stimulus\all_stim\occlusion\partialviewing\manysmall\low\manysmall_partialViewing_low_person7.png,mask_img/000000062350.png,experiment,q,q,209.74473759997636
V3,9,24,Male,Right,18,Block 1,1.9294321000343189,0.05,false,cat,tree,occlusion,high,mask,partial viewing,many small,Stimulus\all_stim\occlusion\partialviewing\manysmall\high\manysmall_partialViewing_high_cat6.png,mask_img/000000049562.png,experiment,r,u,212.78514220000943
V3,9,24,Male,Right,19,Block 1,1.4092505000298843,0.05,true,cat,cat,occlusion,control,mask,partial viewing,few large,Stimulus\all_stim\occlusion\partialviewing\fewlarge\control\fewlarge_partialViewing_control_cat5.png,mask_img/000000006870.png,experiment,u,u,215.256845899974
V3,9,24,Male,Right,20,Block 1,1.185784799978137,0.1,true,tree,tree,occlusion,low,mask,partial viewing,few large,Stimulus\all_stim\occlusion\partialviewing\fewlarge\low\fewlarge_partialViewing_low_tree9.png,mask_img/000000032965.png,experiment,r,r,217.2411504999618
V3,9,24,Male,Right,21,Block 1,0.9134101999807172,0.05,true,person,person,occlusion,high,mask,partial viewing,few large,Stimulus\all_stim\occlusion\partialviewing\fewlarge\high\fewlarge_partialViewing_high_person9.png,mask_img/000000021003.png,experiment,q,q,218.91352659999393
V3,9,24,Male,Right,22,Block 1,0.880995100014843,0.025,true,building,building,occlusion,control,mask,partial viewing,few large,Stimulus\all_stim\occlusion\partialviewing\fewlarge\control\fewlarge_partialViewing_control_building10.png,mask_img/000000003225.png,experiment,p,p,220.49730039999122
V3,9,24,Male,Right,23,Block 1,0.9969501000014134,0.025,true,tree,tree,occlusion,control,mask,partial viewing,many small,Stimulus\all_stim\occlusion\partialviewing\manysmall\control\manysmall_partialViewing_control_tree4.png,mask_img/000000041022.png,experiment,r,r,222.62485079996986
V3,9,24,Male,Right,24,Block 1,0.9584812000393867,0.1,true,cat,cat,occlusion,high,mask,partial viewing,many small,Stimulus\all_stim\occlusion\partialviewing\manysmall\high\manysmall_partialViewing_high_cat9.png,mask_img/000000049933.png,experiment,u,u,224.40116609999677
V3,9,24,Male,Right,25,Block 1,1.944135500001721,0.025,true,person,person,occlusion,high,mask,partial viewing,many small,Stimulus\all_stim\occlusion\partialviewing\manysmall\high\manysmall_partialViewing_high_person6.png,mask_img/000000052426.png,experiment,q,q,227.12917799997376
V3,9,24,Male,Right,26,Block 1,0.8884547000052407,0.025,true,building,building,occlusion,control,mask,partial viewing,many small,Stimulus\all_stim\occlusion\partialviewing\manysmall\control\manysmall_partialViewing_control_building7.png,mask_img/000000036029.png,experiment,p,p,228.72287820000201
V3,9,24,Male,Right,27,Block 1,1.5166199999512173,0.1,true,firehydrant,firehydrant,occlusion,low,mask,partial viewing,few large,Stimulus\all_stim\occlusion\partialviewing\fewlarge\low\fewlarge_partialViewing_low_firehydrant8.png,mask_img/000000028988.png,experiment,w,w,230.95285780000268
V3,9,24,Male,Right,28,Block 1,0.8620584000018425,0.05,true,person,person,occlusion,control,mask,partial viewing,many small,Stimulus\all_stim\occlusion\partialviewing\manysmall\control\manysmall_partialViewing_control_person7.png,mask_img/000000040399.png,experiment,q,q,232.58547960000578
V3,9,24,Male,Right,29,Block 1,0.9352478999644518,0.05,false,bird,person,occlusion,low,mask,partial viewing,many small,Stimulus\all_stim\occlusion\partialviewing\manysmall\low\manysmall_partialViewing_low_bird2.png,mask_img/000000055737.png,experiment,q,o,234.64918939996278
V3,9,24,Male,Right,30,Block 1,0.7502485999721102,0.05,true,person,person,occlusion,low,mask,partial viewing,many small,Stimulus\all_stim\occlusion\partialviewing\manysmall\low\manysmall_partialViewing_low_person10.png,mask_img/000000061838.png,experiment,q,q,236.48892969998997
V3,9,24,Male,Right,31,Block 1,0.744756400003098,0.025,true,person,person,occlusion,control,mask,partial viewing,many small,Stimulus\all_stim\occlusion\partialviewing\manysmall\control\manysmall_partialViewing_control_person10.png,mask_img/000000039778.png,experiment,q,q,238.2488739999826
V3,9,24,Male,Right,32,Block 1,2.689649800013285,0.025,false,building,bird,occlusion,high,mask,partial viewing,many small,Stimulus\all_stim\occlusion\partialviewing\manysmall\high\manysmall_partialViewing_high_building10.png,mask_img/000000044989.png,experiment,o,p,242.01063139998587
V3,9,24,Male,Right,33,Block 1,1.6329387000296265,0.1,true,banana,banana,occlusion,low,mask,partial viewing,many small,Stimulus\all_stim\occlusion\partialviewing\manysmall\low\manysmall_partialViewing_low_banana10.png,mask_img/000000054723.png,experiment,e,e,244.46526739996625
V3,9,24,Male,Right,34,Block 1,0.8885358999832533,0.025,true,cat,cat,occlusion,low,mask,partial viewing,few large,Stimulus\all_stim\occlusion\partialviewing\fewlarge\low\fewlarge_partialViewing_low_cat2.png,mask_img/000000027371.png,experiment,u,u,246.5128635999863
V3,9,24,Male,Right,35,Block 1,0.9138547999900766,0.05,true,building,building,occlusion,high,mask,partial viewing,few large,Stimulus\all_stim\occlusion\partialviewing\fewlarge\high\fewlarge_partialViewing_high_building2.png,mask_img/000000014472.png,experiment,p,p,248.43289940000977
V3,9,24,Male,Right,36,Block 1,1.0025747999898158,0.1,true,building,building,occlusion,control,mask,partial viewing,few large,Stimulus\all_stim\occlusion\partialviewing\fewlarge\control\fewlarge_partialViewing_control_building10.png,mask_img/000000003225.png,experiment,p,p,250.43300889997045
V3,9,24,Male,Right,37,Block 1,0.7506361000123434,0.1,true,cat,cat,occlusion,control,mask,partial viewing,few large,Stimulus\all_stim\occlusion\partialviewing\fewlarge\control\fewlarge_partialViewing_control_cat2.png,mask_img/000000006489.png,experiment,u,u,251.8969614999951
V3,9,24,Male,Right,38,Block 1,1.317639600019902,0.1,true,bird,bird,occlusion,high,mask,partial viewing,many small,Stimulus\all_stim\occlusion\partialviewing\manysmall\high\manysmall_partialViewing_high_bird5.png,mask_img/000000044437.png,experiment,o,o,254.10524969996186
V3,9,24,Male,Right,39,Block 1,0.8277659000013955,0.05,true,firehydrant,firehydrant,occlusion,high,mask,partial viewing,few large,Stimulus\all_stim\occlusion\partialviewing\fewlarge\high\fewlarge_partialViewing_high_firehydrant7.png,mask_img/000000019463.png,experiment,w,w,255.80119640001794
V3,9,24,Male,Right,40,Block 1,1.1261397999478504,0.1,true,cat,cat,occlusion,control,mask,partial viewing,few large,Stimulus\all_stim\occlusion\partialviewing\fewlarge\control\fewlarge_partialViewing_control_cat9.png,mask_img/000000007558.png,experiment,u,u,258.0334630999714
V3,9,24,Male,Right,41,Block 1,0.702536600001622,0.05,true,person,person,occlusion,control,mask,partial viewing,many small,Stimulus\all_stim\occlusion\partialviewing\manysmall\control\manysmall_partialViewing_control_person1.png,mask_img/000000039656.png,experiment,q,q,259.7370593000087
V3,9,24,Male,Right,42,Block 1,1.1149270000169054,0.025,true,bus,bus,occlusion,low,mask,partial viewing,few large,Stimulus\all_stim\occlusion\partialviewing\fewlarge\low\fewlarge_partialViewing_low_bus4.png,mask_img/000000026053.png,experiment,i,i,261.61085009999806
V3,9,24,Male,Right,43,Block 1,0.918349199986551,0.1,true,cat,cat,occlusion,low,mask,partial viewing,few large,Stimulus\all_stim\occlusion\partialviewing\fewlarge\low\fewlarge_partialViewing_low_cat5.png,mask_img/000000027704.png,experiment,u,u,263.35321799997473
V3,9,24,Male,Right,44,Block 1,0.7499550000065938,0.1,true,firehydrant,firehydrant,occlusion,control,mask,partial viewing,few large,Stimulus\all_stim\occlusion\partialviewing\fewlarge\control\fewlarge_partialViewing_control_firehydrant10.png,mask_img/000000007758.png,experiment,w,w,265.04883939999854
V3,9,24,Male,Right,45,Block 1,1.142874400014989,0.025,true,bus,bus,occlusion,low,mask,partial viewing,few large,Stimulus\all_stim\occlusion\partialviewing\fewlarge\low\fewlarge_partialViewing_low_bus10.png,mask_img/000000025855.png,experiment,i,i,266.9611866999767
V3,9,24,Male,Right,46,Block 1,0.7682064999826252,0.05,true,firehydrant,firehydrant,occlusion,low,mask,partial viewing,few large,Stimulus\all_stim\occlusion\partialviewing\fewlarge\low\fewlarge_partialViewing_low_firehydrant6.png,mask_img/000000028842.png,experiment,w,w,268.5369519999949
V3,9,24,Male,Right,47,Block 1,0.6436698000179604,0.1,true,person,person,occlusion,high,mask,partial viewing,few large,Stimulus\all_stim\occlusion\partialviewing\fewlarge\high\fewlarge_partialViewing_high_person6.png,mask_img/000000020392.png,experiment,q,q,270.117358199961
V3,9,24,Male,Right,48,Block 1,0.9202247000066563,0.025,true,bus,bus,occlusion,low,mask,partial viewing,few large,Stimulus\all_stim\occlusion\partialviewing\fewlarge\low\fewlarge_partialViewing_low_bus6.png,mask_img/000000026503.png,experiment,i,i,271.7211505000014
V3,9,24,Male,Right,49,Block 1,1.0308080000104383,0.1,true,bus,bus,occlusion,low,mask,partial viewing,many small,Stimulus\all_stim\occlusion\partialviewing\manysmall\low\manysmall_partialViewing_low_bus2.png,mask_img/000000058627.png,experiment,i,i,273.6088155999896
V3,9,24,Male,Right,50,Block 1,0.8515549000003375,0.05,true,building,building,occlusion,control,mask,partial viewing,many small,Stimulus\all_stim\occlusion\partialviewing\manysmall\control\manysmall_partialViewing_control_building7.png,mask_img/000000036029.png,experiment,p,p,275.43280609999783
V3,9,24,Male,Right,51,Block 1,1.131867499963846,0.05,true,tree,tree,occlusion,control,mask,partial viewing,many small,Stimulus\all_stim\occlusion\partialviewing\manysmall\control\manysmall_partialViewing_control_tree10.png,mask_img/000000040948.png,experiment,r,r,277.5849349999917
V3,9,24,Male,Right,52,Block 1,0.6174023000057787,0.05,true,person,person,occlusion,control,mask,partial viewing,few large,Stimulus\all_stim\occlusion\partialviewing\fewlarge\control\fewlarge_partialViewing_control_person2.png,mask_img/000000008787.png,experiment,q,q,279.0569996999693
V3,9,24,Male,Right,53,Block 1,1.1027699999976903,0.05,true,bus,bus,occlusion,control,mask,partial viewing,few large,Stimulus\all_stim\occlusion\partialviewing\fewlarge\control\fewlarge_partialViewing_control_bus4.png,mask_img/000000005574.png,experiment,i,i,280.920960599964
V3,9,24,Male,Right,54,Block 1,0.9489103999803774,0.025,true,tree,tree,occlusion,control,mask,partial viewing,many small,Stimulus\all_stim\occlusion\partialviewing\manysmall\control\manysmall_partialViewing_control_tree2.png,mask_img/000000041008.png,experiment,r,r,282.68204949999927
V3,9,24,Male,Right,55,Block 1,0.7965287999832071,0.025,true,firehydrant,firehydrant,occlusion,high,mask,partial viewing,few large,Stimulus\all_stim\occlusion\partialviewing\fewlarge\high\fewlarge_partialViewing_high_firehydrant9.png,mask_img/000000019725.png,experiment,w,w,284.1689518999774
V3,9,24,Male,Right,56,Block 1,1.0303591000265442,0.05,true,bird,bird,occlusion,high,mask,partial viewing,many small,Stimulus\all_stim\occlusion\partialviewing\manysmall\high\manysmall_partialViewing_high_bird6.png,mask_img/000000044523.png,experiment,o,o,286.1290335999802
V3,9,24,Male,Right,57,Block 1,1.1730419999803416,0.05,true,tree,tree,occlusion,control,mask,partial viewing,few large,Stimulus\all_stim\occlusion\partialviewing\fewlarge\control\fewlarge_partialViewing_control_tree3.png,mask_img/000000010566.png,experiment,r,r,293.9209756999626
V3,9,24,Male,Right,58,Block 1,1.2979292999953032,0.025,false,person,firehydrant,occlusion,high,mask,partial viewing,many small,Stimulus\all_stim\occlusion\partialviewing\manysmall\high\manysmall_partialViewing_high_person2.png,mask_img/000000051461.png,experiment,w,q,296.177252399968
V3,9,24,Male,Right,59,Block 1,2.951107000000775,0.1,true,person,person,occlusion,low,mask,partial viewing,few large,Stimulus\all_stim\occlusion\partialviewing\fewlarge\low\fewlarge_partialViewing_low_person9.png,mask_img/000000031017.png,experiment,q,q,300.27333230001386
V3,9,24,Male,Right,60,Block 1,0.6189402000163682,0.025,true,person,person,occlusion,low,mask,partial viewing,few large,Stimulus\all_stim\occlusion\partialviewing\fewlarge\low\fewlarge_partialViewing_low_person2.png,mask_img/000000029274.png,experiment,q,q,301.5534556999919
V3,9,24,Male,Right,61,Block 1,1.9053614999866113,0.025,false,bird,tree,occlusion,control,mask,partial viewing,few large,Stimulus\all_stim\occlusion\partialviewing\fewlarge\control\fewlarge_partialViewing_control_bird6.png,mask_img/000000002337.png,experiment,r,o,304.4491617999738
V3,9,24,Male,Right,62,Block 1,1.959416700003203,0.025,true,bus,bus,occlusion,low,mask,partial viewing,few large,Stimulus\all_stim\occlusion\partialviewing\fewlarge\low\fewlarge_partialViewing_low_bus5.png,mask_img/000000026497.png,experiment,i,i,307.3135977999773
V3,9,24,Male,Right,63,Block 1,1.15224580001086,0.1,true,bird,bird,occlusion,control,mask,partial viewing,few large,Stimulus\all_stim\occlusion\partialviewing\fewlarge\control\fewlarge_partialViewing_control_bird7.png,mask_img/000000002774.png,experiment,o,o,309.17712929996196
V3,9,24,Male,Right,64,Block 1,0.6649537999765016,0.05,true,cat,cat,occlusion,high,mask,partial viewing,few large,Stimulus\all_stim\occlusion\partialviewing\fewlarge\high\fewlarge_partialViewing_high_cat2.png,mask_img/000000017352.png,experiment,u,u,310.5209502999787
V3,9,24,Male,Right,65,Block 1,1.9402207999955863,0.025,false,firehydrant,bus,occlusion,high,mask,partial viewing,many small,Stimulus\all_stim\occlusion\partialviewing\manysmall\high\manysmall_partialViewing_high_firehydrant8.png,mask_img/000000050794.png,experiment,i,w,313.4411231999984
V3,9,24,Male,Right,66,Block 1,1.4875673999777064,0.025,true,cat,cat,occlusion,low,mask,partial viewing,few large,Stimulus\all_stim\occlusion\partialviewing\fewlarge\low\fewlarge_partialViewing_low_cat10.png,mask_img/000000027319.png,experiment,u,u,315.7450184999616
V3,9,24,Male,Right,67,Block 1,1.0854420000105165,0.05,true,firehydrant,firehydrant,occlusion,low,mask,partial viewing,few large,Stimulus\all_stim\occlusion\partialviewing\fewlarge\low\fewlarge_partialViewing_low_firehydrant1.png,mask_img/000000028304.png,experiment,w,w,317.7688652999932
V3,9,24,Male,Right,68,Block 1,0.6129412999725901,0.05,true,tree,tree,occlusion,control,mask,partial viewing,few large,Stimulus\all_stim\occlusion\partialviewing\fewlarge\control\fewlarge_partialViewing_control_tree7.png,mask_img/000000011504.png,experiment,r,r,319.05660579999676
V3,9,24,Male,Right,69,Block 1,2.6085965000092983,0.025,false,tree,banana,occlusion,low,mask,partial viewing,few large,Stimulus\all_stim\occlusion\partialviewing\fewlarge\low\fewlarge_partialViewing_low_tree10.png,mask_img/000000031454.png,experiment,e,r,322.42521169997053
V3,9,24,Male,Right,70,Block 1,0.798978700011503,0.1,true,firehydrant,firehydrant,occlusion,low,mask,partial viewing,many small,Stimulus\all_stim\occlusion\partialviewing\manysmall\low\manysmall_partialViewing_low_firehydrant6.png,mask_img/000000060647.png,experiment,w,w,324.2010501999757
V3,9,24,Male,Right,71,Block 1,1.116292799997609,0.05,true,bus,bus,occlusion,high,mask,partial viewing,few large,Stimulus\all_stim\occlusion\partialviewing\fewlarge\high\fewlarge_partialViewing_high_bus3.png,mask_img/000000015908.png,experiment,i,i,326.16140499996254
V3,9,24,Male,Right,72,Block 1,0.9044195999740623,0.025,true,person,person,occlusion,low,mask,partial viewing,many small,Stimulus\all_stim\occlusion\partialviewing\manysmall\low\manysmall_partialViewing_low_person6.png,mask_img/000000062337.png,experiment,q,q,327.8888651999878
V3,9,24,Male,Right,73,Block 1,1.6978940999833867,0.05,false,person,building,occlusion,high,mask,partial viewing,many small,Stimulus\all_stim\occlusion\partialviewing\manysmall\high\manysmall_partialViewing_high_person7.png,mask_img/000000052562.png,experiment,p,q,330.2817885999684
V3,9,24,Male,Right,74,Block 1,1.0291855999967083,0.025,true,cat,cat,occlusion,low,mask,partial viewing,many small,Stimulus\all_stim\occlusion\partialviewing\manysmall\low\manysmall_partialViewing_low_cat3.png,mask_img/000000059442.png,experiment,u,u,332.4089244999923
V3,9,24,Male,Right,75,Block 1,1.0683232999872416,0.1,false,cat,tree,occlusion,low,mask,partial viewing,many small,Stimulus\all_stim\occlusion\partialviewing\manysmall\low\manysmall_partialViewing_low_cat1.png,mask_img/000000059036.png,experiment,r,u,334.23314849997405
V3,9,24,Male,Right,76,Block 1,1.0097516999812797,0.05,false,banana,firehydrant,occlusion,low,mask,partial viewing,many small,Stimulus\all_stim\occlusion\partialviewing\manysmall\low\manysmall_partialViewing_low_banana3.png,mask_img/000000054875.png,experiment,w,e,335.9851156999939
V3,9,24,Male,Right,77,Block 1,1.3807821999653243,0.05,true,bus,bus,occlusion,low,mask,partial viewing,many small,Stimulus\all_stim\occlusion\partialviewing\manysmall\low\manysmall_partialViewing_low_bus9.png,mask_img/000000058910.png,experiment,i,i,338.3371928000124
V3,9,24,Male,Right,78,Block 1,1.661501099995803,0.025,false,person,firehydrant,occlusion,low,mask,partial viewing,many small,Stimulus\all_stim\occlusion\partialviewing\manysmall\low\manysmall_partialViewing_low_person10.png,mask_img/000000061838.png,experiment,w,q,341.03328859998146
V3,9,24,Male,Right,79,Block 1,0.8643365000025369,0.05,true,tree,tree,occlusion,high,mask,partial viewing,few large,Stimulus\all_stim\occlusion\partialviewing\fewlarge\high\fewlarge_partialViewing_high_tree2.png,mask_img/000000021641.png,experiment,r,r,342.5929315999965
V3,9,24,Male,Right,80,Block 1,0.6063955000136048,0.025,true,tree,tree,occlusion,high,mask,partial viewing,few large,Stimulus\all_stim\occlusion\partialviewing\fewlarge\high\fewlarge_partialViewing_high_tree8.png,mask_img/000000022355.png,experiment,r,r,344.03308419999667
V3,9,24,Male,Right,81,Block 1,0.737145800027065,0.025,true,cat,cat,occlusion,control,mask,partial viewing,many small,Stimulus\all_stim\occlusion\partialviewing\manysmall\control\manysmall_partialViewing_control_cat10.png,mask_img/000000038178.png,experiment,u,u,345.56113410001853
V3,9,24,Male,Right,82,Block 1,0.6016189000220038,0.025,false,bird,bus,occlusion,control,mask,partial viewing,few large,Stimulus\all_stim\occlusion\partialviewing\fewlarge\control\fewlarge_partialViewing_control_bird10.png,mask_img/000000001053.png,experiment,i,o,347.0727869999828
V3,9,24,Male,Right,83,Block 1,1.9005697999964468,0.05,true,cat,cat,occlusion,control,mask,partial viewing,many small,Stimulus\all_stim\occlusion\partialviewing\manysmall\control\manysmall_partialViewing_control_cat5.png,mask_img/000000038601.png,experiment,u,u,350.1369978999719
V3,9,24,Male,Right,84,Block 1,0.6528918000403792,0.1,true,building,building,occlusion,control,mask,partial viewing,many small,Stimulus\all_stim\occlusion\partialviewing\manysmall\control\manysmall_partialViewing_control_building10.png,mask_img/000000035857.png,experiment,p,p,351.8307558000088
V3,9,24,Male,Right,85,Block 1,0.7943715000292286,0.1,true,bird,bird,occlusion,control,mask,partial viewing,many small,Stimulus\all_stim\occlusion\partialviewing\manysmall\control\manysmall_partialViewing_control_bird5.png,mask_img/000000034930.png,experiment,o,o,353.3289350999985
V3,9,24,Male,Right,86,Block 1,2.350857099983841,0.1,true,person,person,occlusion,low,mask,partial viewing,few large,Stimulus\all_stim\occlusion\partialviewing\fewlarge\low\fewlarge_partialViewing_low_person8.png,mask_img/000000030611.png,experiment,q,q,356.737280500005
V3,9,24,Male,Right,87,Block 1,0.6809341000043787,0.1,true,person,person,occlusion,control,mask,partial viewing,many small,Stimulus\all_stim\occlusion\partialviewing\manysmall\control\manysmall_partialViewing_control_person10.png,mask_img/000000039778.png,experiment,q,q,358.1848726000171
V3,9,24,Male,Right,88,Block 1,1.2104086000472307,0.025,true,cat,cat,occlusion,control,mask,partial viewing,few large,Stimulus\all_stim\occlusion\partialviewing\fewlarge\control\fewlarge_partialViewing_control_cat1.png,mask_img/000000006437.png,experiment,u,u,360.44120900001144
V3,9,24,Male,Right,89,Block 1,0.5401394999935292,0.1,true,building,building,occlusion,high,mask,partial viewing,few large,Stimulus\all_stim\occlusion\partialviewing\fewlarge\high\fewlarge_partialViewing_high_building2.png,mask_img/000000014472.png,experiment,p,p,361.71948829997564
V3,9,24,Male,Right,90,Block 1,3.1502901000203565,0.1,false,firehydrant,bus,occlusion,high,mask,partial viewing,many small,Stimulus\all_stim\occlusion\partialviewing\manysmall\high\manysmall_partialViewing_high_firehydrant9.png,mask_img/000000051164.png,experiment,i,w,365.94602540001506
V3,9,24,Male,Right,91,Block 1,0.7941555000143126,0.1,true,bird,bird,occlusion,low,mask,partial viewing,few large,Stimulus\all_stim\occlusion\partialviewing\fewlarge\low\fewlarge_partialViewing_low_bird5.png,mask_img/000000024239.png,experiment,o,o,367.90526440000394
V3,9,24,Male,Right,92,Block 1,0.7292136000469327,0.025,true,cat,cat,occlusion,low,mask,partial viewing,many small,Stimulus\all_stim\occlusion\partialviewing\manysmall\low\manysmall_partialViewing_low_cat5.png,mask_img/000000059660.png,experiment,u,u,369.52112930000294
V3,9,24,Male,Right,93,Block 1,1.3895340000162832,0.1,true,bus,bus,occlusion,low,mask,partial viewing,few large,Stimulus\all_stim\occlusion\partialviewing\fewlarge\low\fewlarge_partialViewing_low_bus1.png,mask_img/000000025820.png,experiment,i,i,371.89718999998877
V3,9,24,Male,Right,94,Block 1,1.05074480001349,0.1,true,firehydrant,firehydrant,occlusion,low,mask,partial viewing,few large,Stimulus\all_stim\occlusion\partialviewing\fewlarge\low\fewlarge_partialViewing_low_firehydrant10.png,mask_img/000000028367.png,experiment,w,w,373.76903259998653
V3,9,24,Male,Right,95,Block 1,2.756638800026849,0.05,false,banana,person,occlusion,low,mask,partial viewing,many small,Stimulus\all_stim\occlusion\partialviewing\manysmall\low\manysmall_partialViewing_low_banana6.png,mask_img/000000055460.png,experiment,q,e,377.32917320000706
V3,9,24,Male,Right,96,Block 1,0.5990474999998696,0.05,true,person,person,occlusion,high,mask,partial viewing,many small,Stimulus\all_stim\occlusion\partialviewing\manysmall\high\manysmall_partialViewing_high_person3.png,mask_img/000000051880.png,experiment,q,q,378.9074313999736
V3,9,24,Male,Right,97,Block 1,0.856932099966798,0.05,true,bird,bird,occlusion,control,mask,partial viewing,few large,Stimulus\all_stim\occlusion\partialviewing\fewlarge\control\fewlarge_partialViewing_control_bird4.png,mask_img/000000001997.png,experiment,o,o,380.61696379998466
V3,9,24,Male,Right,98,Block 1,0.9875485999509692,0.05,true,tree,tree,occlusion,low,mask,partial viewing,many small,Stimulus\all_stim\occlusion\partialviewing\manysmall\low\manysmall_partialViewing_low_tree9.png,mask_img/000000063867.png,experiment,r,r,382.5688731999835
V3,9,24,Male,Right,99,Block 1,2.541580500022974,0.1,true,bus,bus,occlusion,high,mask,partial viewing,many small,Stimulus\all_stim\occlusion\partialviewing\manysmall\high\manysmall_partialViewing_high_bus6.png,mask_img/000000047407.png,experiment,i,i,386.0172570999712
V3,9,24,Male,Right,100,Block 1,0.7547307999921031,0.1,true,firehydrant,firehydrant,occlusion,high,mask,partial viewing,many small,Stimulus\all_stim\occlusion\partialviewing\manysmall\high\manysmall_partialViewing_high_firehydrant5.png,mask_img/000000050496.png,experiment,w,w,387.65710909996415
V3,9,24,Male,Right,101,Block 1,0.7624821999925189,0.1,true,person,person,occlusion,high,mask,partial viewing,few large,Stimulus\all_stim\occlusion\partialviewing\fewlarge\high\fewlarge_partialViewing_high_person5.png,mask_img/000000020381.png,experiment,q,q,389.1849067999865
V3,9,24,Male,Right,102,Block 1,1.4229520999942906,0.1,false,bird,firehydrant,occlusion,high,mask,partial viewing,many small,Stimulus\all_stim\occlusion\partialviewing\manysmall\high\manysmall_partialViewing_high_bird10.png,mask_img/000000044065.png,experiment,w,o,391.41760589997284
V3,9,24,Male,Right,103,Block 1,0.7951441999757662,0.05,true,person,person,occlusion,low,mask,partial viewing,many small,Stimulus\all_stim\occlusion\partialviewing\manysmall\low\manysmall_partialViewing_low_person9.png,mask_img/000000062427.png,experiment,q,q,393.05032759997994
V3,9,24,Male,Right,104,Block 1,1.2618483999976888,0.1,true,bus,bus,occlusion,control,mask,partial viewing,many small,Stimulus\all_stim\occlusion\partialviewing\manysmall\control\manysmall_partialViewing_control_bus2.png,mask_img/000000036622.png,experiment,i,i,395.4651346000028
V3,9,24,Male,Right,105,Block 1,0.6475659999996424,0.1,true,tree,tree,occlusion,control,mask,partial viewing,few large,Stimulus\all_stim\occlusion\partialviewing\fewlarge\control\fewlarge_partialViewing_control_tree9.png,mask_img/000000011701.png,experiment,r,r,397.1990797999897
V3,9,24,Male,Right,106,Block 1,1.0669946999987587,0.1,false,bus,building,occlusion,low,mask,partial viewing,many small,Stimulus\all_stim\occlusion\partialviewing\manysmall\low\manysmall_partialViewing_low_bus9.png,mask_img/000000058910.png,experiment,p,i,399.33733890001895
V3,9,24,Male,Right,107,Block 1,0.7426411000196822,0.025,true,building,building,occlusion,low,mask,partial viewing,many small,Stimulus\all_stim\occlusion\partialviewing\manysmall\low\manysmall_partialViewing_low_building3.png,mask_img/000000057646.png,experiment,p,p,401.1287651999737
V3,9,24,Male,Right,108,Block 1,0.6789876000257209,0.05,true,person,person,occlusion,high,mask,partial viewing,many small,Stimulus\all_stim\occlusion\partialviewing\manysmall\high\manysmall_partialViewing_high_person1.png,mask_img/000000051310.png,experiment,q,q,402.7290963999694
V3,9,24,Male,Right,109,Block 1,0.7010435999836773,0.05,true,tree,tree,occlusion,low,mask,partial viewing,few large,Stimulus\all_stim\occlusion\partialviewing\fewlarge\low\fewlarge_partialViewing_low_tree4.png,mask_img/000000032364.png,experiment,r,r,404.46533049998106
V3,9,24,Male,Right,110,Block 1,0.5512645000126213,0.025,true,tree,tree,occlusion,control,mask,partial viewing,few large,Stimulus\all_stim\occlusion\partialviewing\fewlarge\control\fewlarge_partialViewing_control_tree9.png,mask_img/000000011701.png,experiment,r,r,406.13547229999676
V3,9,24,Male,Right,111,Block 1,0.9021788000245579,0.025,true,person,person,occlusion,high,mask,partial viewing,few large,Stimulus\all_stim\occlusion\partialviewing\fewlarge\high\fewlarge_partialViewing_high_person4.png,mask_img/000000020202.png,experiment,q,q,407.93746180000016
V3,9,24,Male,Right,112,Block 1,0.6808230999740772,0.05,true,tree,tree,occlusion,high,mask,partial viewing,few large,Stimulus\all_stim\occlusion\partialviewing\fewlarge\high\fewlarge_partialViewing_high_tree9.png,mask_img/000000022440.png,experiment,r,r,409.28060719999485
V3,9,24,Male,Right,113,Block 1,1.3677039999747649,0.1,true,cat,cat,occlusion,low,mask,partial viewing,many small,Stimulus\all_stim\occlusion\partialviewing\manysmall\low\manysmall_partialViewing_low_cat2.png,mask_img/000000059201.png,experiment,u,u,411.3690116999787
V3,9,24,Male,Right,114,Block 1,0.8685053000226617,0.1,true,bird,bird,occlusion,low,mask,partial viewing,few large,Stimulus\all_stim\occlusion\partialviewing\fewlarge\low\fewlarge_partialViewing_low_bird4.png,mask_img/000000024193.png,experiment,o,o,412.9290145999985
V3,9,24,Male,Right,115,Block 1,0.6313207999919541,0.025,true,person,person,occlusion,low,mask,partial viewing,many small,Stimulus\all_stim\occlusion\partialviewing\manysmall\low\manysmall_partialViewing_low_person3.png,mask_img/000000062128.png,experiment,q,q,414.7129135999712
V3,9,24,Male,Right,116,Block 1,0.744892000046093,0.05,true,building,building,occlusion,control,mask,partial viewing,few large,Stimulus\all_stim\occlusion\partialviewing\fewlarge\control\fewlarge_partialViewing_control_building4.png,mask_img/000000004239.png,experiment,p,p,416.2811635999824
V3,9,24,Male,Right,117,Block 1,0.953434799972456,0.025,false,cat,tree,occlusion,low,mask,partial viewing,many small,Stimulus\all_stim\occlusion\partialviewing\manysmall\low\manysmall_partialViewing_low_cat9.png,mask_img/000000060387.png,experiment,r,u,418.03297070000554
V3,9,24,Male,Right,118,Block 1,0.9872395999846049,0.025,false,bird,person,occlusion,high,mask,partial viewing,few large,Stimulus\all_stim\occlusion\partialviewing\fewlarge\high\fewlarge_partialViewing_high_bird10.png,mask_img/000000013127.png,experiment,q,o,419.88982410001336
V3,9,24,Male,Right,119,Block 1,0.9623926000203937,0.1,true,bird,bird,occlusion,control,mask,partial viewing,few large,Stimulus\all_stim\occlusion\partialviewing\fewlarge\control\fewlarge_partialViewing_control_bird9.png,mask_img/000000002892.png,experiment,o,o,421.84888949996093
V3,9,24,Male,Right,120,Block 1,0.719903199991677,0.1,true,tree,tree,occlusion,low,mask,partial viewing,many small,Stimulus\all_stim\occlusion\partialviewing\manysmall\low\manysmall_partialViewing_low_tree2.png,mask_img/000000062875.png,experiment,r,r,423.2327567000175
V3,9,24,Male,Right,121,Block 1,0.8912894999957643,0.025,true,firehydrant,firehydrant,occlusion,high,mask,partial viewing,many small,Stimulus\all_stim\occlusion\partialviewing\manysmall\high\manysmall_partialViewing_high_firehydrant4.png,mask_img/000000050412.png,experiment,w,w,424.9770803999854
V3,9,24,Male,Right,122,Block 1,1.4361219000420533,0.1,false,building,person,occlusion,high,mask,partial viewing,many small,Stimulus\all_stim\occlusion\partialviewing\manysmall\high\manysmall_partialViewing_high_building4.png,mask_img/000000046025.png,experiment,q,p,427.4333655000082
V3,9,24,Male,Right,123,Block 1,1.5083409000071697,0.025,true,tree,tree,occlusion,high,mask,partial viewing,many small,Stimulus\all_stim\occlusion\partialviewing\manysmall\high\manysmall_partialViewing_high_tree5.png,mask_img/000000053410.png,experiment,r,r,429.89744570001494
V3,9,24,Male,Right,124,Block 1,0.986912599997595,0.05,true,bus,bus,occlusion,low,mask,partial viewing,few large,Stimulus\all_stim\occlusion\partialviewing\fewlarge\low\fewlarge_partialViewing_low_bus9.png,mask_img/000000027005.png,experiment,i,i,431.55295230000047
V3,9,24,Male,Right,125,Block 1,0.8095740000135265,0.025,true,firehydrant,firehydrant,occlusion,high,mask,partial viewing,many small,Stimulus\all_stim\occlusion\partialviewing\manysmall\high\manysmall_partialViewing_high_firehydrant5.png,mask_img/000000050496.png,experiment,w,w,433.195085400017
V3,9,24,Male,Right,126,Block 1,0.7412645000149496,0.1,true,person,person,occlusion,high,mask,partial viewing,many small,Stimulus\all_stim\occlusion\partialviewing\manysmall\high\manysmall_partialViewing_high_person10.png,mask_img/000000051453.png,experiment,q,q,434.6490174999926
V3,9,24,Male,Right,127,Block 1,0.9186436999589205,0.1,true,building,building,occlusion,high,mask,partial viewing,few large,Stimulus\all_stim\occlusion\partialviewing\fewlarge\high\fewlarge_partialViewing_high_building7.png,mask_img/000000015155.png,experiment,p,p,436.5049141999916
V3,9,24,Male,Right,128,Block 1,0.8642106000334024,0.05,true,person,person,occlusion,low,mask,partial viewing,few large,Stimulus\all_stim\occlusion\partialviewing\fewlarge\low\fewlarge_partialViewing_low_person7.png,mask_img/000000030526.png,experiment,q,q,438.4090579999611
V3,9,24,Male,Right,129,Block 1,0.8422999000176787,0.025,true,bus,bus,occlusion,control,mask,partial viewing,few large,Stimulus\all_stim\occlusion\partialviewing\fewlarge\control\fewlarge_partialViewing_control_bus10.png,mask_img/000000005282.png,experiment,i,i,440.13693490001606
V3,9,24,Male,Right,130,Block 1,0.7850838000304066,0.025,false,cat,tree,occlusion,high,mask,partial viewing,many small,Stimulus\all_stim\occlusion\partialviewing\manysmall\high\manysmall_partialViewing_high_cat6.png,mask_img/000000049562.png,experiment,r,u,441.6333989999839
V3,9,24,Male,Right,131,Block 1,0.6149830999784172,0.05,true,person,person,occlusion,low,mask,partial viewing,few large,Stimulus\all_stim\occlusion\partialviewing\fewlarge\low\fewlarge_partialViewing_low_person3.png,mask_img/000000029506.png,experiment,q,q,443.0169644000125
V3,9,24,Male,Right,132,Block 1,2.1819977999548428,0.05,true,firehydrant,firehydrant,occlusion,low,mask,partial viewing,few large,Stimulus\all_stim\occlusion\partialviewing\fewlarge\low\fewlarge_partialViewing_low_firehydrant9.png,mask_img/000000029056.png,experiment,w,w,446.23370119999163
V3,9,24,Male,Right,133,Block 1,0.5357623000163585,0.05,true,firehydrant,firehydrant,occlusion,control,mask,partial viewing,many small,Stimulus\all_stim\occlusion\partialviewing\manysmall\control\manysmall_partialViewing_control_firehydrant5.png,mask_img/000000039211.png,experiment,w,w,447.79922689998057
V3,9,24,Male,Right,134,Block 1,0.8612590000266209,0.05,false,banana,bird,occlusion,low,mask,partial viewing,many small,Stimulus\all_stim\occlusion\partialviewing\manysmall\low\manysmall_partialViewing_low_banana9.png,mask_img/000000055652.png,experiment,o,e,449.8030424999888
V3,9,24,Male,Right,135,Block 1,1.490212499978952,0.1,false,cat,bird,occlusion,high,mask,partial viewing,many small,Stimulus\all_stim\occlusion\partialviewing\manysmall\high\manysmall_partialViewing_high_cat5.png,mask_img/000000049428.png,experiment,o,u,452.02502930001356
V3,9,24,Male,Right,136,Block 1,1.7257024999707937,0.05,true,building,building,occlusion,high,mask,partial viewing,few large,Stimulus\all_stim\occlusion\partialviewing\fewlarge\high\fewlarge_partialViewing_high_building5.png,mask_img/000000014759.png,experiment,p,p,454.84296460001497
V3,9,24,Male,Right,137,Block 1,0.5621157999848947,0.1,true,building,building,occlusion,low,mask,partial viewing,few large,Stimulus\all_stim\occlusion\partialviewing\fewlarge\low\fewlarge_partialViewing_low_building3.png,mask_img/000000024808.png,experiment,p,p,456.0857684999937
V3,9,24,Male,Right,138,Block 1,0.5332331000245176,0.05,true,building,building,occlusion,control,mask,partial viewing,few large,Stimulus\all_stim\occlusion\partialviewing\fewlarge\control\fewlarge_partialViewing_control_building7.png,mask_img/000000004936.png,experiment,p,p,457.4027284999611
V3,9,24,Male,Right,139,Block 1,0.9484471000032499,0.1,true,bus,bus,occlusion,high,mask,partial viewing,few large,Stimulus\all_stim\occlusion\partialviewing\fewlarge\high\fewlarge_partialViewing_high_bus1.png,mask_img/000000015645.png,experiment,i,i,459.46483169996645
V3,9,24,Male,Right,140,Block 1,0.771830499987118,0.025,true,person,person,occlusion,low,mask,partial viewing,many small,Stimulus\all_stim\occlusion\partialviewing\manysmall\low\manysmall_partialViewing_low_person4.png,mask_img/000000062131.png,experiment,q,q,461.2488819999853
V3,9,24,Male,Right,141,Block 1,0.5789789999835193,0.05,false,bus,bird,occlusion,high,mask,partial viewing,few large,Stimulus\all_stim\occlusion\partialviewing\fewlarge\high\fewlarge_partialViewing_high_bus9.png,mask_img/000000016764.png,experiment,o,i,462.9390280999942
V3,9,24,Male,Right,142,Block 1,1.3350096999784,0.025,true,tree,tree,occlusion,high,mask,partial viewing,few large,Stimulus\all_stim\occlusion\partialviewing\fewlarge\high\fewlarge_partialViewing_high_tree5.png,mask_img/000000022102.png,experiment,r,r,465.29703859996516
V3,9,24,Male,Right,143,Block 1,0.9462200999842025,0.025,true,person,person,occlusion,control,mask,partial viewing,few large,Stimulus\all_stim\occlusion\partialviewing\fewlarge\control\fewlarge_partialViewing_control_person7.png,mask_img/000000009648.png,experiment,q,q,466.9640141999698
V3,9,24,Male,Right,144,Block 1,0.6535657999920659,0.05,true,person,person,occlusion,low,mask,partial viewing,few large,Stimulus\all_stim\occlusion\partialviewing\fewlarge\low\fewlarge_partialViewing_low_person6.png,mask_img/000000030267.png,experiment,q,q,474.8657894000062
V3,9,24,Male,Right,145,Block 2,0.6738235999946482,0.1,true,tree,tree,occlusion,low,mask,partial viewing,few large,Stimulus\all_stim\occlusion\partialviewing\fewlarge\low\fewlarge_partialViewing_low_tree5.png,mask_img/000000032403.png,experiment,r,r,476.6933538999874
V3,9,24,Male,Right,146,Block 2,0.5597502999589778,0.025,true,building,building,occlusion,control,mask,partial viewing,few large,Stimulus\all_stim\occlusion\partialviewing\fewlarge\control\fewlarge_partialViewing_control_building6.png,mask_img/000000004739.png,experiment,p,p,477.9778866000124
V3,9,24,Male,Right,147,Block 2,0.5570485999924131,0.1,true,person,person,occlusion,control,mask,partial viewing,many small,Stimulus\all_stim\occlusion\partialviewing\manysmall\control\manysmall_partialViewing_control_person6.png,mask_img/000000040325.png,experiment,q,q,479.6277667999966
V3,9,24,Male,Right,148,Block 2,0.6222783999983221,0.025,true,bird,bird,occlusion,control,mask,partial viewing,few large,Stimulus\all_stim\occlusion\partialviewing\fewlarge\control\fewlarge_partialViewing_control_bird8.png,mask_img/000000002822.png,experiment,o,o,481.2492027999833
V3,9,24,Male,Right,149,Block 2,0.7017615999793634,0.1,true,cat,cat,occlusion,control,mask,partial viewing,many small,Stimulus\all_stim\occlusion\partialviewing\manysmall\control\manysmall_partialViewing_control_cat5.png,mask_img/000000038601.png,experiment,u,u,482.9168067999999
V3,9,24,Male,Right,150,Block 2,1.0121273000258952,0.05,false,bird,cat,occlusion,high,mask,partial viewing,few large,Stimulus\all_stim\occlusion\partialviewing\fewlarge\high\fewlarge_partialViewing_high_bird3.png,mask_img/000000013455.png,experiment,u,o,484.75706589996116
V3,9,24,Male,Right,151,Block 2,0.5110471999505535,0.025,true,person,person,occlusion,control,mask,partial viewing,few large,Stimulus\all_stim\occlusion\partialviewing\fewlarge\control\fewlarge_partialViewing_control_person3.png,mask_img/000000008920.png,experiment,q,q,486.1144589000032
V3,9,24,Male,Right,152,Block 2,0.6446206999826245,0.025,true,building,building,occlusion,high,mask,partial viewing,few large,Stimulus\all_stim\occlusion\partialviewing\fewlarge\high\fewlarge_partialViewing_high_building3.png,mask_img/000000014567.png,experiment,p,p,487.6818237999687
V3,9,24,Male,Right,153,Block 2,0.6831642999895848,0.025,true,building,building,occlusion,control,mask,partial viewing,few large,Stimulus\all_stim\occlusion\partialviewing\fewlarge\control\fewlarge_partialViewing_control_building3.png,mask_img/000000003694.png,experiment,p,p,489.35300110001117
V3,9,24,Male,Right,154,Block 2,0.5196862000157125,0.05,true,building,building,occlusion,low,mask,partial viewing,many small,Stimulus\all_stim\occlusion\partialviewing\manysmall\low\manysmall_partialViewing_low_building3.png,mask_img/000000057646.png,experiment,p,p,490.98190610000165
V3,9,24,Male,Right,155,Block 2,3.325433099991642,0.1,false,banana,bus,occlusion,low,mask,partial viewing,many small,Stimulus\all_stim\occlusion\partialviewing\manysmall\low\manysmall_partialViewing_low_banana1.png,mask_img/000000054532.png,experiment,i,e,495.07401519996347
V3,9,24,Male,Right,156,Block 2,0.6464999000309035,0.025,true,bird,bird,occlusion,low,mask,partial viewing,many small,Stimulus\all_stim\occlusion\partialviewing\manysmall\low\manysmall_partialViewing_low_bird10.png,mask_img/000000055733.png,experiment,o,o,496.5127877999912
V3,9,24,Male,Right,157,Block 2,0.4951749999891035,0.1,true,bird,bird,occlusion,low,mask,partial viewing,many small,Stimulus\all_stim\occlusion\partialviewing\manysmall\low\manysmall_partialViewing_low_bird10.png,mask_img/000000055733.png,experiment,o,o,497.9358319999883
V3,9,24,Male,Right,158,Block 2,0.6242337999865413,0.1,true,person,person,occlusion,control,mask,partial viewing,many small,Stimulus\all_stim\occlusion\partialviewing\manysmall\control\manysmall_partialViewing_control_person5.png,mask_img/000000040275.png,experiment,q,q,499.2849521000171
V3,9,24,Male,Right,159,Block 2,0.8353754000272602,0.05,true,firehydrant,firehydrant,occlusion,control,mask,partial viewing,many small,Stimulus\all_stim\occlusion\partialviewing\manysmall\control\manysmall_partialViewing_control_firehydrant7.png,mask_img/000000039475.png,experiment,w,w,501.0585565000074
V3,9,24,Male,Right,160,Block 2,0.7529982000123709,0.05,true,cat,cat,occlusion,control,mask,partial viewing,few large,Stimulus\all_stim\occlusion\partialviewing\fewlarge\control\fewlarge_partialViewing_control_cat6.png,mask_img/000000007179.png,experiment,u,u,502.72126129997196
V3,9,24,Male,Right,161,Block 2,0.49011529999552295,0.025,true,cat,cat,occlusion,high,mask,partial viewing,few large,Stimulus\all_stim\occlusion\partialviewing\fewlarge\high\fewlarge_partialViewing_high_cat4.png,mask_img/000000017364.png,experiment,u,u,504.403550499992
V3,9,24,Male,Right,162,Block 2,0.5748452999978326,0.1,true,firehydrant,firehydrant,occlusion,control,mask,partial viewing,few large,Stimulus\all_stim\occlusion\partialviewing\fewlarge\control\fewlarge_partialViewing_control_firehydrant3.png,mask_img/000000007946.png,experiment,w,w,505.9375631000148
V3,9,24,Male,Right,163,Block 2,0.8650976000353694,0.05,false,cat,bird,occlusion,control,mask,partial viewing,many small,Stimulus\all_stim\occlusion\partialviewing\manysmall\control\manysmall_partialViewing_control_cat8.png,mask_img/000000038817.png,experiment,o,u,507.896931700001
V3,9,24,Male,Right,164,Block 2,1.1942392999771982,0.025,false,person,bird,occlusion,high,mask,partial viewing,many small,Stimulus\all_stim\occlusion\partialviewing\manysmall\high\manysmall_partialViewing_high_person8.png,mask_img/000000052606.png,experiment,o,q,509.8331574999611
V3,9,24,Male,Right,165,Block 2,0.684205400000792,0.05,true,cat,cat,occlusion,control,mask,partial viewing,many small,Stimulus\all_stim\occlusion\partialviewing\manysmall\control\manysmall_partialViewing_control_cat10.png,mask_img/000000038178.png,experiment,u,u,511.63277949998155
V3,9,24,Male,Right,166,Block 2,2.8893557999981567,0.025,false,banana,firehydrant,occlusion,high,mask,partial viewing,few large,Stimulus\all_stim\occlusion\partialviewing\fewlarge\high\fewlarge_partialViewing_high_banana9.png,mask_img/000000012999.png,experiment,w,e,515.5530916000134
V3,9,24,Male,Right,167,Block 2,1.0515116000315174,0.1,false,person,building,occlusion,low,mask,partial viewing,many small,Stimulus\all_stim\occlusion\partialviewing\manysmall\low\manysmall_partialViewing_low_person9.png,mask_img/000000062427.png,experiment,p,q,517.3451217999682
V3,9,24,Male,Right,168,Block 2,1.1265588999958709,0.1,true,building,building,occlusion,control,mask,partial viewing,few large,Stimulus\all_stim\occlusion\partialviewing\fewlarge\control\fewlarge_partialViewing_control_building8.png,mask_img/000000005105.png,experiment,p,p,519.5369211999932
V3,9,24,Male,Right,169,Block 2,1.0819922999944538,0.1,false,banana,bird,occlusion,high,mask,partial viewing,many small,Stimulus\all_stim\occlusion\partialviewing\manysmall\high\manysmall_partialViewing_high_banana4.png,mask_img/000000042499.png,experiment,o,e,521.4169714999734
V3,9,24,Male,Right,170,Block 2,0.9513287000008859,0.025,true,person,person,occlusion,low,mask,partial viewing,many small,Stimulus\all_stim\occlusion\partialviewing\manysmall\low\manysmall_partialViewing_low_person5.png,mask_img/000000062193.png,experiment,q,q,523.1133126000059
V3,9,24,Male,Right,171,Block 2,0.756105899985414,0.025,true,person,person,occlusion,high,mask,partial viewing,few large,Stimulus\all_stim\occlusion\partialviewing\fewlarge\high\fewlarge_partialViewing_high_person5.png,mask_img/000000020381.png,experiment,q,q,524.8331601999816
V3,9,24,Male,Right,172,Block 2,0.6243177000433207,0.1,true,firehydrant,firehydrant,occlusion,control,mask,partial viewing,few large,Stimulus\all_stim\occlusion\partialviewing\fewlarge\control\fewlarge_partialViewing_control_firehydrant6.png,mask_img/000000008025.png,experiment,w,w,526.394777700014
V3,9,24,Male,Right,173,Block 2,0.7594992999802344,0.05,true,bird,bird,occlusion,low,mask,partial viewing,few large,Stimulus\all_stim\occlusion\partialviewing\fewlarge\low\fewlarge_partialViewing_low_bird4.png,mask_img/000000024193.png,experiment,o,o,528.0572010999895
V3,9,24,Male,Right,174,Block 2,0.624129300005734,0.1,true,cat,cat,occlusion,control,mask,partial viewing,few large,Stimulus\all_stim\occlusion\partialviewing\fewlarge\control\fewlarge_partialViewing_control_cat6.png,mask_img/000000007179.png,experiment,u,u,529.680591500015
V3,9,24,Male,Right,175,Block 2,0.5799121999880299,0.05,true,cat,cat,occlusion,control,mask,partial viewing,many small,Stimulus\all_stim\occlusion\partialviewing\manysmall\control\manysmall_partialViewing_control_cat1.png,mask_img/000000038177.png,experiment,u,u,531.1631508999853
V3,9,24,Male,Right,176,Block 2,0.6122359000146389,0.05,true,cat,cat,occlusion,low,mask,partial viewing,few large,Stimulus\all_stim\occlusion\partialviewing\fewlarge\low\fewlarge_partialViewing_low_cat5.png,mask_img/000000027704.png,experiment,u,u,532.8248253999627
V3,9,24,Male,Right,177,Block 2,1.4055121999699622,0.05,true,bus,bus,occlusion,control,mask,partial viewing,many small,Stimulus\all_stim\occlusion\partialviewing\manysmall\control\manysmall_partialViewing_control_bus7.png,mask_img/000000037339.png,experiment,i,i,534.9052647000062
V3,9,24,Male,Right,178,Block 2,0.8475564999971539,0.025,true,bus,bus,occlusion,high,mask,partial viewing,many small,Stimulus\all_stim\occlusion\partialviewing\manysmall\high\manysmall_partialViewing_high_bus10.png,mask_img/000000046805.png,experiment,i,i,536.600891500013
V3,9,24,Male,Right,179,Block 2,0.6044472000212409,0.1,true,person,person,occlusion,low,mask,partial viewing,few large,Stimulus\all_stim\occlusion\partialviewing\fewlarge\low\fewlarge_partialViewing_low_person4.png,mask_img/000000029730.png,experiment,q,q,537.9162429000135
V3,9,24,Male,Right,180,Block 2,0.6974797999719158,0.1,true,cat,cat,occlusion,high,mask,partial viewing,few large,Stimulus\all_stim\occlusion\partialviewing\fewlarge\high\fewlarge_partialViewing_high_cat3.png,mask_img/000000017356.png,experiment,u,u,539.3049607999856
V3,9,24,Male,Right,181,Block 2,1.232435300014913,0.025,false,banana,bird,occlusion,high,mask,partial viewing,many small,Stimulus\all_stim\occlusion\partialviewing\manysmall\high\manysmall_partialViewing_high_banana1.png,mask_img/000000041962.png,experiment,o,e,541.4491860999842
V3,9,24,Male,Right,182,Block 2,0.5904621999943629,0.025,true,person,person,occlusion,low,mask,partial viewing,few large,Stimulus\all_stim\occlusion\partialviewing\fewlarge\low\fewlarge_partialViewing_low_person5.png,mask_img/000000029964.png,experiment,q,q,543.1067545000114
V3,9,24,Male,Right,183,Block 2,1.2532397999893874,0.05,false,banana,person,occlusion,high,mask,partial viewing,few large,Stimulus\all_stim\occlusion\partialviewing\fewlarge\high\fewlarge_partialViewing_high_banana8.png,mask_img/000000012733.png,experiment,q,e,545.0649672999862
V3,9,24,Male,Right,184,Block 2,0.7193597999867052,0.025,true,bird,bird,occlusion,control,mask,partial viewing,many small,Stimulus\all_stim\occlusion\partialviewing\manysmall\control\manysmall_partialViewing_control_bird5.png,mask_img/000000034930.png,experiment,o,o,546.576760499971
V3,9,24,Male,Right,185,Block 2,1.1127875999663956,0.025,false,bird,person,occlusion,low,mask,partial viewing,many small,Stimulus\all_stim\occlusion\partialviewing\manysmall\low\manysmall_partialViewing_low_bird4.png,mask_img/000000055859.png,experiment,q,o,548.5210455000051
V3,9,24,Male,Right,186,Block 2,1.7113875999930315,0.025,false,person,building,occlusion,high,mask,partial viewing,many small,Stimulus\all_stim\occlusion\partialviewing\manysmall\high\manysmall_partialViewing_high_person5.png,mask_img/000000052250.png,experiment,p,q,551.1292104999884
V3,9,24,Male,Right,187,Block 2,2.7397318999865092,0.025,false,firehydrant,building,occlusion,high,mask,partial viewing,few large,Stimulus\all_stim\occlusion\partialviewing\fewlarge\high\fewlarge_partialViewing_high_firehydrant4.png,mask_img/000000018882.png,experiment,p,w,554.8811470000073
V3,9,24,Male,Right,188,Block 2,1.0203392000403255,0.025,true,cat,cat,occlusion,low,mask,partial viewing,few large,Stimulus\all_stim\occlusion\partialviewing\fewlarge\low\fewlarge_partialViewing_low_cat8.png,mask_img/000000028171.png,experiment,u,u,556.6248423999641
V3,9,24,Male,Right,189,Block 2,0.7360193000058644,0.05,true,bus,bus,occlusion,high,mask,partial viewing,few large,Stimulus\all_stim\occlusion\partialviewing\fewlarge\high\fewlarge_partialViewing_high_bus6.png,mask_img/000000015987.png,experiment,i,i,558.1768752000062
V3,9,24,Male,Right,190,Block 2,1.2088127000024542,0.025,true,person,person,occlusion,high,mask,partial viewing,few large,Stimulus\all_stim\occlusion\partialviewing\fewlarge\high\fewlarge_partialViewing_high_person6.png,mask_img/000000020392.png,experiment,q,q,560.3612304999842
V3,9,24,Male,Right,191,Block 2,0.6574048999464139,0.05,true,tree,tree,occlusion,low,mask,partial viewing,few large,Stimulus\all_stim\occlusion\partialviewing\fewlarge\low\fewlarge_partialViewing_low_tree2.png,mask_img/000000031601.png,experiment,r,r,561.8577769999974
V3,9,24,Male,Right,192,Block 2,1.0302261000033468,0.025,true,building,building,occlusion,low,mask,partial viewing,few large,Stimulus\all_stim\occlusion\partialviewing\fewlarge\low\fewlarge_partialViewing_low_building2.png,mask_img/000000024702.png,experiment,p,p,564.0429479000159
V3,9,24,Male,Right,193,Block 2,0.6436001000110991,0.1,false,bird,person,occlusion,low,mask,partial viewing,many small,Stimulus\all_stim\occlusion\partialviewing\manysmall\low\manysmall_partialViewing_low_bird4.png,mask_img/000000055859.png,experiment,q,o,565.5608427000116
V3,9,24,Male,Right,194,Block 2,0.8574431999586523,0.1,false,banana,firehydrant,occlusion,high,mask,partial viewing,few large,Stimulus\all_stim\occlusion\partialviewing\fewlarge\high\fewlarge_partialViewing_high_banana6.png,mask_img/000000012548.png,experiment,w,e,567.3053471000167
V3,9,24,Male,Right,195,Block 2,2.4053698999923654,0.025,false,bus,building,occlusion,low,mask,partial viewing,many small,Stimulus\all_stim\occlusion\partialviewing\manysmall\low\manysmall_partialViewing_low_bus7.png,mask_img/000000058822.png,experiment,p,i,570.7398831999744
V3,9,24,Male,Right,196,Block 2,0.750513199949637,0.05,true,person,person,occlusion,low,mask,partial viewing,many small,Stimulus\all_stim\occlusion\partialviewing\manysmall\low\manysmall_partialViewing_low_person8.png,mask_img/000000062420.png,experiment,q,q,572.6328984000138
V3,9,24,Male,Right,197,Block 2,1.2658089000033215,0.025,false,banana,tree,occlusion,low,mask,partial viewing,few large,Stimulus\all_stim\occlusion\partialviewing\fewlarge\low\fewlarge_partialViewing_low_banana4.png,mask_img/000000023015.png,experiment,r,e,574.6412159000174
V3,9,24,Male,Right,198,Block 2,1.204117099987343,0.1,true,person,person,occlusion,low,mask,partial viewing,few large,Stimulus\all_stim\occlusion\partialviewing\fewlarge\low\fewlarge_partialViewing_low_person3.png,mask_img/000000029506.png,experiment,q,q,576.872902299976
V3,9,24,Male,Right,199,Block 2,1.8636991000385024,0.05,false,bird,tree,occlusion,low,mask,partial viewing,many small,Stimulus\all_stim\occlusion\partialviewing\manysmall\low\manysmall_partialViewing_low_bird5.png,mask_img/000000055942.png,experiment,r,o,579.6414102999843
V3,9,24,Male,Right,200,Block 2,1.0530274999910034,0.025,true,building,building,occlusion,low,mask,partial viewing,many small,Stimulus\all_stim\occlusion\partialviewing\manysmall\low\manysmall_partialViewing_low_building7.png,mask_img/000000058021.png,experiment,p,p,581.6411111999769
V3,9,24,Male,Right,201,Block 2,0.8997333000297658,0.025,false,bus,building,occlusion,low,mask,partial viewing,few large,Stimulus\all_stim\occlusion\partialviewing\fewlarge\low\fewlarge_partialViewing_low_bus3.png,mask_img/000000025997.png,experiment,p,i,583.2889462999883
V3,9,24,Male,Right,202,Block 2,0.6792768000159413,0.05,true,person,person,occlusion,control,mask,partial viewing,many small,Stimulus\all_stim\occlusion\partialviewing\manysmall\control\manysmall_partialViewing_control_person2.png,mask_img/000000039971.png,experiment,q,q,584.898843300005
V3,9,24,Male,Right,203,Block 2,0.9299902999773622,0.025,true,bird,bird,occlusion,high,mask,partial viewing,many small,Stimulus\all_stim\occlusion\partialviewing\manysmall\high\manysmall_partialViewing_high_bird2.png,mask_img/000000044117.png,experiment,o,o,586.9448753999895
V3,9,24,Male,Right,204,Block 2,1.2572966000298038,0.1,true,banana,banana,occlusion,low,mask,partial viewing,many small,Stimulus\all_stim\occlusion\partialviewing\manysmall\low\manysmall_partialViewing_low_banana5.png,mask_img/000000055388.png,experiment,e,e,589.0097752999864
V3,9,24,Male,Right,205,Block 2,0.7161471000290476,0.1,true,tree,tree,occlusion,high,mask,partial viewing,few large,Stimulus\all_stim\occlusion\partialviewing\fewlarge\high\fewlarge_partialViewing_high_tree3.png,mask_img/000000021942.png,experiment,r,r,590.7372000999749
V3,9,24,Male,Right,206,Block 2,0.932296899962239,0.025,true,firehydrant,firehydrant,occlusion,low,mask,partial viewing,few large,Stimulus\all_stim\occlusion\partialviewing\fewlarge\low\fewlarge_partialViewing_low_firehydrant6.png,mask_img/000000028842.png,experiment,w,w,592.3449793999898
V3,9,24,Male,Right,207,Block 2,1.1957081999862567,0.05,true,bus,bus,occlusion,low,mask,partial viewing,few large,Stimulus\all_stim\occlusion\partialviewing\fewlarge\low\fewlarge_partialViewing_low_bus3.png,mask_img/000000025997.png,experiment,i,i,594.5692649999983
V3,9,24,Male,Right,208,Block 2,0.7156138000427745,0.05,true,building,building,occlusion,control,mask,partial viewing,many small,Stimulus\all_stim\occlusion\partialviewing\manysmall\control\manysmall_partialViewing_control_building5.png,mask_img/000000036004.png,experiment,p,p,596.3289744000067
V3,9,24,Male,Right,209,Block 2,0.6419511000276543,0.1,true,building,building,occlusion,low,mask,partial viewing,many small,Stimulus\all_stim\occlusion\partialviewing\manysmall\low\manysmall_partialViewing_low_building8.png,mask_img/000000058073.png,experiment,p,p,597.6877986000036
V3,9,24,Male,Right,210,Block 2,0.6860089999972843,0.025,true,person,person,occlusion,low,mask,partial viewing,few large,Stimulus\all_stim\occlusion\partialviewing\fewlarge\low\fewlarge_partialViewing_low_person7.png,mask_img/000000030526.png,experiment,q,q,599.4491154999705
V3,9,24,Male,Right,211,Block 2,0.5715434000012465,0.05,true,person,person,occlusion,high,mask,partial viewing,few large,Stimulus\all_stim\occlusion\partialviewing\fewlarge\high\fewlarge_partialViewing_high_person2.png,mask_img/000000019932.png,experiment,q,q,600.95530099998
V3,9,24,Male,Right,212,Block 2,0.7720051999785937,0.05,true,tree,tree,occlusion,high,mask,partial viewing,many small,Stimulus\all_stim\occlusion\partialviewing\manysmall\high\manysmall_partialViewing_high_tree9.png,mask_img/000000054336.png,experiment,r,r,602.8171792000066
V3,9,24,Male,Right,213,Block 2,0.7079901000251994,0.1,true,building,building,occlusion,high,mask,partial viewing,few large,Stimulus\all_stim\occlusion\partialviewing\fewlarge\high\fewlarge_partialViewing_high_building3.png,mask_img/000000014567.png,experiment,p,p,604.4572459000046
V3,9,24,Male,Right,214,Block 2,0.6934463999932632,0.05,true,person,person,occlusion,high,mask,partial viewing,few large,Stimulus\all_stim\occlusion\partialviewing\fewlarge\high\fewlarge_partialViewing_high_person4.png,mask_img/000000020202.png,experiment,q,q,606.2649835000047
V3,9,24,Male,Right,215,Block 2,0.5751822000020184,0.1,true,person,person,occlusion,control,mask,partial viewing,few large,Stimulus\all_stim\occlusion\partialviewing\fewlarge\control\fewlarge_partialViewing_control_person7.png,mask_img/000000009648.png,experiment,q,q,607.5914094999898
V3,9,24,Male,Right,216,Block 2,1.4039895000169054,0.1,false,cat,bird,occlusion,high,mask,partial viewing,many small,Stimulus\all_stim\occlusion\partialviewing\manysmall\high\manysmall_partialViewing_high_cat4.png,mask_img/000000049331.png,experiment,o,u,609.8734863999998
V3,9,24,Male,Right,217,Block 2,0.8762184000224806,0.05,true,firehydrant,firehydrant,occlusion,low,mask,partial viewing,many small,Stimulus\all_stim\occlusion\partialviewing\manysmall\low\manysmall_partialViewing_low_firehydrant10.png,mask_img/000000060529.png,experiment,w,w,611.5210803999798
V3,9,24,Male,Right,218,Block 2,0.7633689000504091,0.025,true,bird,bird,occlusion,control,mask,partial viewing,few large,Stimulus\all_stim\occlusion\partialviewing\fewlarge\control\fewlarge_partialViewing_control_bird2.png,mask_img/000000001647.png,experiment,o,o,613.1692203999846
V3,9,24,Male,Right,219,Block 2,0.7729497000109404,0.05,true,tree,tree,occlusion,high,mask,partial viewing,many small,Stimulus\all_stim\occlusion\partialviewing\manysmall\high\manysmall_partialViewing_high_tree1.png,mask_img/000000052784.png,experiment,r,r,614.6410740999854
V3,9,24,Male,Right,220,Block 2,0.7038478000322357,0.05,true,building,building,occlusion,low,mask,partial viewing,few large,Stimulus\all_stim\occlusion\partialviewing\fewlarge\low\fewlarge_partialViewing_low_building7.png,mask_img/000000025192.png,experiment,p,p,616.3608613999677
V3,9,24,Male,Right,221,Block 2,0.7889973999699578,0.025,false,bus,building,occlusion,high,mask,partial viewing,few large,Stimulus\all_stim\occlusion\partialviewing\fewlarge\high\fewlarge_partialViewing_high_bus8.png,mask_img/000000016715.png,experiment,p,i,618.1848947000108
V3,9,24,Male,Right,222,Block 2,0.756715500028804,0.025,true,cat,cat,occlusion,control,mask,partial viewing,few large,Stimulus\all_stim\occlusion\partialviewing\fewlarge\control\fewlarge_partialViewing_control_cat2.png,mask_img/000000006489.png,experiment,u,u,619.8808289999724
V3,9,24,Male,Right,223,Block 2,0.7403938999632373,0.025,true,person,person,occlusion,low,mask,partial viewing,many small,Stimulus\all_stim\occlusion\partialviewing\manysmall\low\manysmall_partialViewing_low_person1.png,mask_img/000000061780.png,experiment,q,q,621.625074599986
V3,9,24,Male,Right,224,Block 2,0.597326899995096,0.05,true,building,building,occlusion,control,mask,partial viewing,many small,Stimulus\all_stim\occlusion\partialviewing\manysmall\control\manysmall_partialViewing_control_building3.png,mask_img/000000035979.png,experiment,p,p,622.9479556999868
V3,9,24,Male,Right,225,Block 2,2.1534317000187,0.1,true,banana,banana,occlusion,high,mask,partial viewing,few large,Stimulus\all_stim\occlusion\partialviewing\fewlarge\high\fewlarge_partialViewing_high_banana10.png,mask_img/000000012178.png,experiment,e,e,626.2573987999931
V3,9,24,Male,Right,226,Block 2,0.8305251999991015,0.05,true,person,person,occlusion,low,mask,partial viewing,few large,Stimulus\all_stim\occlusion\partialviewing\fewlarge\low\fewlarge_partialViewing_low_person9.png,mask_img/000000031017.png,experiment,q,q,627.9128540999955
V3,9,24,Male,Right,227,Block 2,1.2246417999849655,0.025,false,cat,bird,occlusion,high,mask,partial viewing,many small,Stimulus\all_stim\occlusion\partialviewing\manysmall\high\manysmall_partialViewing_high_cat8.png,mask_img/000000049763.png,experiment,o,u,630.2652923999703
V3,9,24,Male,Right,228,Block 2,0.7609932000050321,0.05,true,banana,banana,occlusion,low,mask,partial viewing,few large,Stimulus\all_stim\occlusion\partialviewing\fewlarge\low\fewlarge_partialViewing_low_banana3.png,mask_img/000000023004.png,experiment,e,e,632.088992999983
V3,9,24,Male,Right,229,Block 2,0.7269399000215344,0.025,true,tree,tree,occlusion,low,mask,partial viewing,many small,Stimulus\all_stim\occlusion\partialviewing\manysmall\low\manysmall_partialViewing_low_tree8.png,mask_img/000000063804.png,experiment,r,r,633.8010930999881
V3,9,24,Male,Right,230,Block 2,0.6301233000122011,0.025,true,tree,tree,occlusion,high,mask,partial viewing,many small,Stimulus\all_stim\occlusion\partialviewing\manysmall\high\manysmall_partialViewing_high_tree8.png,mask_img/000000054334.png,experiment,r,r,635.520846200001
V3,9,24,Male,Right,231,Block 2,0.9662208000081591,0.05,false,bus,building,occlusion,high,mask,partial viewing,few large,Stimulus\all_stim\occlusion\partialviewing\fewlarge\high\fewlarge_partialViewing_high_bus8.png,mask_img/000000016715.png,experiment,p,i,637.4331682999618
V3,9,24,Male,Right,232,Block 2,0.8388434000080451,0.1,true,tree,tree,occlusion,low,mask,partial viewing,few large,Stimulus\all_stim\occlusion\partialviewing\fewlarge\low\fewlarge_partialViewing_low_tree10.png,mask_img/000000031454.png,experiment,r,r,639.1932271000114
V3,9,24,Male,Right,233,Block 2,0.7205741999787278,0.05,true,bird,bird,occlusion,control,mask,partial viewing,few large,Stimulus\all_stim\occlusion\partialviewing\fewlarge\control\fewlarge_partialViewing_control_bird3.png,mask_img/000000001810.png,experiment,o,o,640.7049234000151
V3,9,24,Male,Right,234,Block 2,0.8829480999847874,0.025,true,bird,bird,occlusion,low,mask,partial viewing,few large,Stimulus\all_stim\occlusion\partialviewing\fewlarge\low\fewlarge_partialViewing_low_bird5.png,mask_img/000000024239.png,experiment,o,o,642.6410275999806
V3,9,24,Male,Right,235,Block 2,1.1022727999952622,0.05,true,banana,banana,occlusion,low,mask,partial viewing,few large,Stimulus\all_stim\occlusion\partialviewing\fewlarge\low\fewlarge_partialViewing_low_banana2.png,mask_img/000000022983.png,experiment,e,e,644.4498779000132
V3,9,24,Male,Right,236,Block 2,0.908941000001505,0.05,true,bus,bus,occlusion,low,mask,partial viewing,many small,Stimulus\all_stim\occlusion\partialviewing\manysmall\low\manysmall_partialViewing_low_bus3.png,mask_img/000000058647.png,experiment,i,i,646.3289691999671
V3,9,24,Male,Right,237,Block 2,0.952293100010138,0.05,true,tree,tree,occlusion,high,mask,partial viewing,many small,Stimulus\all_stim\occlusion\partialviewing\manysmall\high\manysmall_partialViewing_high_tree10.png,mask_img/000000052818.png,experiment,r,r,648.2250836999738
V3,9,24,Male,Right,238,Block 2,1.551620999991428,0.1,false,cat,bird,occlusion,low,mask,partial viewing,many small,Stimulus\all_stim\occlusion\partialviewing\manysmall\low\manysmall_partialViewing_low_cat5.png,mask_img/000000059660.png,experiment,o,u,650.4733331999741
V3,9,24,Male,Right,239,Block 2,0.9219417999847792,0.025,true,cat,cat,occlusion,high,mask,partial viewing,few large,Stimulus\all_stim\occlusion\partialviewing\fewlarge\high\fewlarge_partialViewing_high_cat2.png,mask_img/000000017352.png,experiment,u,u,652.5538600999862
V3,9,24,Male,Right,240,Block 2,0.8574491000035778,0.1,true,banana,banana,occlusion,low,mask,partial viewing,many small,Stimulus\all_stim\occlusion\partialviewing\manysmall\low\manysmall_partialViewing_low_banana3.png,mask_img/000000054875.png,experiment,e,e,654.5693203000119
V3,9,24,Male,Right,241,Block 2,0.728455800039228,0.1,true,bus,bus,occlusion,low,mask,partial viewing,few large,Stimulus\all_stim\occlusion\partialviewing\fewlarge\low\fewlarge_partialViewing_low_bus8.png,mask_img/000000026782.png,experiment,i,i,655.9613180999877
V3,9,24,Male,Right,242,Block 2,0.6926051999907941,0.05,true,banana,banana,occlusion,high,mask,partial viewing,few large,Stimulus\all_stim\occlusion\partialviewing\fewlarge\high\fewlarge_partialViewing_high_banana6.png,mask_img/000000012548.png,experiment,e,e,657.7613371000043
V3,9,24,Male,Right,243,Block 2,0.5786645999760367,0.1,true,tree,tree,occlusion,control,mask,partial viewing,few large,Stimulus\all_stim\occlusion\partialviewing\fewlarge\control\fewlarge_partialViewing_control_tree8.png,mask_img/000000011544.png,experiment,r,r,659.0786797999754
V3,9,24,Male,Right,244,Block 2,0.808673900028225,0.05,true,bus,bus,occlusion,high,mask,partial viewing,many small,Stimulus\all_stim\occlusion\partialviewing\manysmall\high\manysmall_partialViewing_high_bus3.png,mask_img/000000047229.png,experiment,i,i,660.6895742999623
V3,9,24,Male,Right,245,Block 2,2.0136092000175267,0.025,false,firehydrant,cat,occlusion,high,mask,partial viewing,many small,Stimulus\all_stim\occlusion\partialviewing\manysmall\high\manysmall_partialViewing_high_firehydrant7.png,mask_img/000000050790.png,experiment,u,w,663.3770272000111
V3,9,24,Male,Right,246,Block 2,1.0091420000535436,0.025,true,bird,bird,occlusion,control,mask,partial viewing,few large,Stimulus\all_stim\occlusion\partialviewing\fewlarge\control\fewlarge_partialViewing_control_bird1.png,mask_img/000000000873.png,experiment,o,o,665.240977199981
V3,9,24,Male,Right,247,Block 2,0.6333469000528567,0.1,true,bird,bird,occlusion,low,mask,partial viewing,few large,Stimulus\all_stim\occlusion\partialviewing\fewlarge\low\fewlarge_partialViewing_low_bird9.png,mask_img/000000024530.png,experiment,o,o,667.013167099969
V3,9,24,Male,Right,248,Block 2,0.8032192999962717,0.05,true,bus,bus,occlusion,high,mask,partial viewing,few large,Stimulus\all_stim\occlusion\partialviewing\fewlarge\high\fewlarge_partialViewing_high_bus2.png,mask_img/000000015862.png,experiment,i,i,668.785269999993
V3,9,24,Male,Right,249,Block 2,0.6327040999894962,0.025,true,cat,cat,occlusion,control,mask,partial viewing,many small,Stimulus\all_stim\occlusion\partialviewing\manysmall\control\manysmall_partialViewing_control_cat1.png,mask_img/000000038177.png,experiment,u,u,670.1849161999999
V3,9,24,Male,Right,250,Block 2,1.0639532000059262,0.025,true,banana,banana,occlusion,high,mask,partial viewing,few large,Stimulus\all_stim\occlusion\partialviewing\fewlarge\high\fewlarge_partialViewing_high_banana2.png,mask_img/000000012179.png,experiment,e,e,672.3625399000011
V3,9,24,Male,Right,251,Block 2,1.474981100007426,0.05,false,firehydrant,tree,occlusion,high,mask,partial viewing,many small,Stimulus\all_stim\occlusion\partialviewing\manysmall\high\manysmall_partialViewing_high_firehydrant1.png,mask_img/000000049987.png,experiment,r,w,674.8333795999642
V3,9,24,Male,Right,252,Block 2,0.7796410000300966,0.025,true,banana,banana,occlusion,high,mask,partial viewing,few large,Stimulus\all_stim\occlusion\partialviewing\fewlarge\high\fewlarge_partialViewing_high_banana5.png,mask_img/000000012543.png,experiment,e,e,676.7539745999966
V3,9,24,Male,Right,253,Block 2,0.672239699983038,0.1,true,person,person,occlusion,control,mask,partial viewing,many small,Stimulus\all_stim\occlusion\partialviewing\manysmall\control\manysmall_partialViewing_control_person3.png,mask_img/000000040008.png,experiment,q,q,678.4359776999918
V3,9,24,Male,Right,254,Block 2,2.245661399967503,0.025,true,banana,banana,occlusion,control,mask,partial viewing,few large,Stimulus\all_stim\occlusion\partialviewing\fewlarge\control\fewlarge_partialViewing_control_banana3.png,mask_img/000000000394.png,experiment,e,e,681.4254524999997
V3,9,24,Male,Right,255,Block 2,0.6799356000265107,0.1,true,tree,tree,occlusion,high,mask,partial viewing,many small,Stimulus\all_stim\occlusion\partialviewing\manysmall\high\manysmall_partialViewing_high_tree4.png,mask_img/000000053143.png,experiment,r,r,682.8729562999797
V3,9,24,Male,Right,256,Block 2,0.7715999000356533,0.025,true,cat,cat,occlusion,control,mask,partial viewing,few large,Stimulus\all_stim\occlusion\partialviewing\fewlarge\control\fewlarge_partialViewing_control_cat10.png,mask_img/000000006481.png,experiment,u,u,684.7291445999872
V3,9,24,Male,Right,257,Block 2,2.297947100014426,0.025,true,bird,bird,occlusion,high,mask,partial viewing,many small,Stimulus\all_stim\occlusion\partialviewing\manysmall\high\manysmall_partialViewing_high_bird10.png,mask_img/000000044065.png,experiment,o,o,687.9453741000034
V3,9,24,Male,Right,258,Block 2,0.7410684999777004,0.05,true,building,building,occlusion,low,mask,partial viewing,many small,Stimulus\all_stim\occlusion\partialviewing\manysmall\low\manysmall_partialViewing_low_building10.png,mask_img/000000057068.png,experiment,p,p,689.6336240000091
V3,9,24,Male,Right,259,Block 2,0.5652395999641158,0.1,false,bus,building,occlusion,low,mask,partial viewing,many small,Stimulus\all_stim\occlusion\partialviewing\manysmall\low\manysmall_partialViewing_low_bus7.png,mask_img/000000058822.png,experiment,p,i,691.3055043999921
V3,9,24,Male,Right,260,Block 2,0.9794813999906182,0.05,true,cat,cat,occlusion,high,mask,partial viewing,few large,Stimulus\all_stim\occlusion\partialviewing\fewlarge\high\fewlarge_partialViewing_high_cat9.png,mask_img/000000017858.png,experiment,u,u,693.153384300007
V3,9,24,Male,Right,261,Block 2,1.9850753999780864,0.05,false,firehydrant,bus,occlusion,high,mask,partial viewing,many small,Stimulus\all_stim\occlusion\partialviewing\manysmall\high\manysmall_partialViewing_high_firehydrant6.png,mask_img/000000050782.png,experiment,i,w,696.2975680999807
V3,9,24,Male,Right,262,Block 2,0.7495758999721147,0.1,true,person,person,occlusion,low,mask,partial viewing,many small,Stimulus\all_stim\occlusion\partialviewing\manysmall\low\manysmall_partialViewing_low_person2.png,mask_img/000000061867.png,experiment,q,q,697.8733221999719
V3,9,24,Male,Right,263,Block 2,0.8496066000079736,0.025,true,tree,tree,occlusion,high,mask,partial viewing,many small,Stimulus\all_stim\occlusion\partialviewing\manysmall\high\manysmall_partialViewing_high_tree4.png,mask_img/000000053143.png,experiment,r,r,699.6653780000051
V3,9,24,Male,Right,264,Block 2,0.5263390999753028,0.1,true,tree,tree,occlusion,high,mask,partial viewing,many small,Stimulus\all_stim\occlusion\partialviewing\manysmall\high\manysmall_partialViewing_high_tree9.png,mask_img/000000054336.png,experiment,r,r,701.0421482999809
V3,9,24,Male,Right,265,Block 2,0.7173799000447616,0.05,true,person,person,occlusion,high,mask,partial viewing,few large,Stimulus\all_stim\occlusion\partialviewing\fewlarge\high\fewlarge_partialViewing_high_person6.png,mask_img/000000020392.png,experiment,q,q,702.7047909999965
V3,9,24,Male,Right,266,Block 2,0.579130400030408,0.1,true,tree,tree,occlusion,low,mask,partial viewing,many small,Stimulus\all_stim\occlusion\partialviewing\manysmall\low\manysmall_partialViewing_low_tree9.png,mask_img/000000063867.png,experiment,r,r,703.9934620999848
V3,9,24,Male,Right,267,Block 2,1.9479792999918573,0.025,true,banana,banana,occlusion,high,mask,partial viewing,many small,Stimulus\all_stim\occlusion\partialviewing\manysmall\high\manysmall_partialViewing_high_banana3.png,mask_img/000000042476.png,experiment,e,e,707.0651918000076
V3,9,24,Male,Right,268,Block 2,0.5784694000030868,0.1,true,tree,tree,occlusion,high,mask,partial viewing,few large,Stimulus\all_stim\occlusion\partialviewing\fewlarge\high\fewlarge_partialViewing_high_tree7.png,mask_img/000000022256.png,experiment,r,r,708.5118326999946
V3,9,24,Male,Right,269,Block 2,0.6866500999894924,0.05,true,bus,bus,occlusion,low,mask,partial viewing,few large,Stimulus\all_stim\occlusion\partialviewing\fewlarge\low\fewlarge_partialViewing_low_bus5.png,mask_img/000000026497.png,experiment,i,i,709.9048391999677
V3,9,24,Male,Right,270,Block 2,0.5930829999851994,0.025,true,person,person,occlusion,control,mask,partial viewing,many small,Stimulus\all_stim\occlusion\partialviewing\manysmall\control\manysmall_partialViewing_control_person3.png,mask_img/000000040008.png,experiment,q,q,711.4013523000176
V3,9,24,Male,Right,271,Block 2,0.6210228999843821,0.025,false,banana,tree,occlusion,control,mask,partial viewing,few large,Stimulus\all_stim\occlusion\partialviewing\fewlarge\control\fewlarge_partialViewing_control_banana2.png,mask_img/000000000312.png,experiment,r,e,712.8746201000176
V3,9,24,Male,Right,272,Block 2,2.4337356999749318,0.05,false,bird,cat,occlusion,control,mask,partial viewing,many small,Stimulus\all_stim\occlusion\partialviewing\manysmall\control\manysmall_partialViewing_control_bird6.png,mask_img/000000034993.png,experiment,u,o,716.3771745999693
V3,9,24,Male,Right,273,Block 2,0.9372533999849111,0.025,true,firehydrant,firehydrant,occlusion,low,mask,partial viewing,few large,Stimulus\all_stim\occlusion\partialviewing\fewlarge\low\fewlarge_partialViewing_low_firehydrant2.png,mask_img/000000028517.png,experiment,w,w,718.4330329999793
V3,9,24,Male,Right,274,Block 2,1.0012121999752708,0.05,true,tree,tree,occlusion,low,mask,partial viewing,few large,Stimulus\all_stim\occlusion\partialviewing\fewlarge\low\fewlarge_partialViewing_low_tree8.png,mask_img/000000032918.png,experiment,r,r,720.3708210999612
V3,9,24,Male,Right,275,Block 2,0.9140525999828242,0.025,true,tree,tree,occlusion,control,mask,partial viewing,few large,Stimulus\all_stim\occlusion\partialviewing\fewlarge\control\fewlarge_partialViewing_control_tree5.png,mask_img/000000010991.png,experiment,r,r,722.2410607999773
V3,9,24,Male,Right,276,Block 2,0.694558400020469,0.025,true,person,person,occlusion,high,mask,partial viewing,few large,Stimulus\all_stim\occlusion\partialviewing\fewlarge\high\fewlarge_partialViewing_high_person8.png,mask_img/000000020570.png,experiment,q,q,724.0730898999609
V3,9,24,Male,Right,277,Block 2,0.8087524999864399,0.1,true,building,building,occlusion,low,mask,partial viewing,many small,Stimulus\all_stim\occlusion\partialviewing\manysmall\low\manysmall_partialViewing_low_building9.png,mask_img/000000058102.png,experiment,p,p,725.7770055999863
V3,9,24,Male,Right,278,Block 2,1.282035700045526,0.1,true,banana,banana,occlusion,high,mask,partial viewing,many small,Stimulus\all_stim\occlusion\partialviewing\manysmall\high\manysmall_partialViewing_high_banana8.png,mask_img/000000043291.png,experiment,e,e,727.7528522000066
V3,9,24,Male,Right,279,Block 2,0.939499199972488,0.05,true,bus,bus,occlusion,low,mask,partial viewing,few large,Stimulus\all_stim\occlusion\partialviewing\fewlarge\low\fewlarge_partialViewing_low_bus6.png,mask_img/000000026503.png,experiment,i,i,729.6101643000147
V3,9,24,Male,Right,280,Block 2,0.6826959999743849,0.1,true,bus,bus,occlusion,low,mask,partial viewing,few large,Stimulus\all_stim\occlusion\partialviewing\fewlarge\low\fewlarge_partialViewing_low_bus3.png,mask_img/000000025997.png,experiment,i,i,731.4494009999908
V3,9,24,Male,Right,281,Block 2,1.2990747999865562,0.1,true,bird,bird,occlusion,high,mask,partial viewing,few large,Stimulus\all_stim\occlusion\partialviewing\fewlarge\high\fewlarge_partialViewing_high_bird10.png,mask_img/000000013127.png,experiment,o,o,733.6490097999922
V3,9,24,Male,Right,282,Block 2,0.8207633999991231,0.1,true,firehydrant,firehydrant,occlusion,control,mask,partial viewing,many small,Stimulus\all_stim\occlusion\partialviewing\manysmall\control\manysmall_partialViewing_control_firehydrant10.png,mask_img/000000039053.png,experiment,w,w,735.1935001999955
V3,9,24,Male,Right,283,Block 2,0.8487025000504218,0.05,true,building,building,occlusion,high,mask,partial viewing,few large,Stimulus\all_stim\occlusion\partialviewing\fewlarge\high\fewlarge_partialViewing_high_building4.png,mask_img/000000014592.png,experiment,p,p,737.1611355000059
V3,9,24,Male,Right,284,Block 2,0.7992508999886923,0.1,true,person,person,occlusion,low,mask,partial viewing,many small,Stimulus\all_stim\occlusion\partialviewing\manysmall\low\manysmall_partialViewing_low_person3.png,mask_img/000000062128.png,experiment,q,q,738.6427452999633
V3,9,24,Male,Right,285,Block 2,0.7250370999681763,0.1,true,cat,cat,occlusion,control,mask,partial viewing,many small,Stimulus\all_stim\occlusion\partialviewing\manysmall\control\manysmall_partialViewing_control_cat6.png,mask_img/000000038753.png,experiment,u,u,740.5130287999636
V3,9,24,Male,Right,286,Block 2,0.7548397000064142,0.05,true,person,person,occlusion,control,mask,partial viewing,many small,Stimulus\all_stim\occlusion\partialviewing\manysmall\control\manysmall_partialViewing_control_person6.png,mask_img/000000040325.png,experiment,q,q,742.0008524999721
V3,9,24,Male,Right,287,Block 2,0.6677936000050977,0.1,true,bus,bus,occlusion,low,mask,partial viewing,many small,Stimulus\all_stim\occlusion\partialviewing\manysmall\low\manysmall_partialViewing_low_bus4.png,mask_img/000000058701.png,experiment,i,i,743.608971300011
V3,9,24,Male,Right,288,Block 2,0.6147266000043601,0.025,true,person,person,occlusion,control,mask,partial viewing,few large,Stimulus\all_stim\occlusion\partialviewing\fewlarge\control\fewlarge_partialViewing_control_person10.png,mask_img/000000008469.png,experiment,q,q,749.9370486999978
V3,9,24,Male,Right,289,Block 3,0.6250295999925584,0.05,true,building,building,occlusion,control,mask,partial viewing,few large,Stimulus\all_stim\occlusion\partialviewing\fewlarge\control\fewlarge_partialViewing_control_building3.png,mask_img/000000003694.png,experiment,p,p,751.5049134999863
V3,9,24,Male,Right,290,Block 3,0.6980194999487139,0.05,true,bird,bird,occlusion,low,mask,partial viewing,few large,Stimulus\all_stim\occlusion\partialviewing\fewlarge\low\fewlarge_partialViewing_low_bird2.png,mask_img/000000024125.png,experiment,o,o,753.3293884000159
V3,9,24,Male,Right,291,Block 3,0.552636899985373,0.025,true,person,person,occlusion,low,mask,partial viewing,few large,Stimulus\all_stim\occlusion\partialviewing\fewlarge\low\fewlarge_partialViewing_low_person4.png,mask_img/000000029730.png,experiment,q,q,754.8467555000097
V3,9,24,Male,Right,292,Block 3,0.6299308000016026,0.025,false,tree,banana,occlusion,control,mask,partial viewing,many small,Stimulus\all_stim\occlusion\partialviewing\manysmall\control\manysmall_partialViewing_control_tree7.png,mask_img/000000041434.png,experiment,e,r,756.5931705000112
V3,9,24,Male,Right,293,Block 3,1.3055876000435092,0.1,true,person,person,occlusion,low,mask,partial viewing,few large,Stimulus\all_stim\occlusion\partialviewing\fewlarge\low\fewlarge_partialViewing_low_person6.png,mask_img/000000030267.png,experiment,q,q,758.8021003999747
V3,9,24,Male,Right,294,Block 3,0.7721517000463791,0.05,true,firehydrant,firehydrant,occlusion,control,mask,partial viewing,few large,Stimulus\all_stim\occlusion\partialviewing\fewlarge\control\fewlarge_partialViewing_control_firehydrant6.png,mask_img/000000008025.png,experiment,w,w,760.3370045999764
V3,9,24,Male,Right,295,Block 3,1.6317837000242434,0.025,false,bird,cat,occlusion,control,mask,partial viewing,many small,Stimulus\all_stim\occlusion\partialviewing\manysmall\control\manysmall_partialViewing_control_bird1.png,mask_img/000000034113.png,experiment,u,o,762.9450613000081
V3,9,24,Male,Right,296,Block 3,0.6258733000140637,0.1,true,cat,cat,occlusion,low,mask,partial viewing,few large,Stimulus\all_stim\occlusion\partialviewing\fewlarge\low\fewlarge_partialViewing_low_cat6.png,mask_img/000000027764.png,experiment,u,u,764.5166315999813
V3,9,24,Male,Right,297,Block 3,1.174127700040117,0.1,true,cat,cat,occlusion,low,mask,partial viewing,many small,Stimulus\all_stim\occlusion\partialviewing\manysmall\low\manysmall_partialViewing_low_cat10.png,mask_img/000000059046.png,experiment,u,u,766.5931372999912
V3,9,24,Male,Right,298,Block 3,0.6199264000169933,0.05,true,person,person,occlusion,control,mask,partial viewing,few large,Stimulus\all_stim\occlusion\partialviewing\fewlarge\control\fewlarge_partialViewing_control_person7.png,mask_img/000000009648.png,experiment,q,q,767.9447673999821
V3,9,24,Male,Right,299,Block 3,0.6724160999874584,0.05,true,building,building,occlusion,low,mask,partial viewing,few large,Stimulus\all_stim\occlusion\partialviewing\fewlarge\low\fewlarge_partialViewing_low_building6.png,mask_img/000000025143.png,experiment,p,p,769.728732699994
V3,9,24,Male,Right,300,Block 3,1.3958730000304058,0.025,true,bus,bus,occlusion,high,mask,partial viewing,many small,Stimulus\all_stim\occlusion\partialviewing\manysmall\high\manysmall_partialViewing_high_bus4.png,mask_img/000000047316.png,experiment,i,i,772.0267143999808
V3,9,24,Male,Right,301,Block 3,0.7130937000038102,0.1,true,bus,bus,occlusion,low,mask,partial viewing,many small,Stimulus\all_stim\occlusion\partialviewing\manysmall\low\manysmall_partialViewing_low_bus1.png,mask_img/000000058232.png,experiment,i,i,773.5692326999852
V3,9,24,Male,Right,302,Block 3,1.4851348999654874,0.05,false,banana,bus,occlusion,low,mask,partial viewing,many small,Stimulus\all_stim\occlusion\partialviewing\manysmall\low\manysmall_partialViewing_low_banana10.png,mask_img/000000054723.png,experiment,i,e,775.8421006000135
V3,9,24,Male,Right,303,Block 3,0.74072729999898,0.1,true,tree,tree,occlusion,control,mask,partial viewing,many small,Stimulus\all_stim\occlusion\partialviewing\manysmall\control\manysmall_partialViewing_control_tree2.png,mask_img/000000041008.png,experiment,r,r,777.4171896000043
V3,9,24,Male,Right,304,Block 3,0.6142150000086986,0.025,true,person,person,occlusion,low,mask,partial viewing,few large,Stimulus\all_stim\occlusion\partialviewing\fewlarge\low\fewlarge_partialViewing_low_person1.png,mask_img/000000029090.png,experiment,q,q,779.1535186999827
V3,9,24,Male,Right,305,Block 3,1.697013999975752,0.025,false,building,tree,occlusion,high,mask,partial viewing,many small,Stimulus\all_stim\occlusion\partialviewing\manysmall\high\manysmall_partialViewing_high_building4.png,mask_img/000000046025.png,experiment,r,p,781.5609383999836
V3,9,24,Male,Right,306,Block 3,0.6526911999681033,0.05,false,firehydrant,person,occlusion,high,mask,partial viewing,few large,Stimulus\all_stim\occlusion\partialviewing\fewlarge\high\fewlarge_partialViewing_high_firehydrant1.png,mask_img/000000017944.png,experiment,q,w,783.0566886999877
V3,9,24,Male,Right,307,Block 3,0.6279870000435039,0.1,true,building,building,occlusion,low,mask,partial viewing,few large,Stimulus\all_stim\occlusion\partialviewing\fewlarge\low\fewlarge_partialViewing_low_building6.png,mask_img/000000025143.png,experiment,p,p,784.3567260999698
V3,9,24,Male,Right,308,Block 3,1.138449399964884,0.1,false,bird,person,occlusion,high,mask,partial viewing,many small,Stimulus\all_stim\occlusion\partialviewing\manysmall\high\manysmall_partialViewing_high_bird3.png,mask_img/000000044123.png,experiment,q,o,786.4411441999837
V3,9,24,Male,Right,309,Block 3,1.0901839999714866,0.05,true,bus,bus,occlusion,control,mask,partial viewing,few large,Stimulus\all_stim\occlusion\partialviewing\fewlarge\control\fewlarge_partialViewing_control_bus5.png,mask_img/000000005615.png,experiment,i,i,788.3213220000034
V3,9,24,Male,Right,310,Block 3,0.9170744000002742,0.05,true,firehydrant,firehydrant,occlusion,low,mask,partial viewing,many small,Stimulus\all_stim\occlusion\partialviewing\manysmall\low\manysmall_partialViewing_low_firehydrant5.png,mask_img/000000060623.png,experiment,w,w,790.2493872999912
V3,9,24,Male,Right,311,Block 3,1.1231699000345543,0.1,true,bus,bus,occlusion,high,mask,partial viewing,few large,Stimulus\all_stim\occlusion\partialviewing\fewlarge\high\fewlarge_partialViewing_high_bus5.png,mask_img/000000015986.png,experiment,i,i,792.0417517999886
V3,9,24,Male,Right,312,Block 3,0.7971962000010535,0.1,true,bird,bird,occlusion,control,mask,partial viewing,few large,Stimulus\all_stim\occlusion\partialviewing\fewlarge\control\fewlarge_partialViewing_control_bird3.png,mask_img/000000001810.png,experiment,o,o,793.9615192000056
V3,9,24,Male,Right,313,Block 3,1.1991259999922477,0.025,false,bird,firehydrant,occlusion,control,mask,partial viewing,many small,Stimulus\all_stim\occlusion\partialviewing\manysmall\control\manysmall_partialViewing_control_bird6.png,mask_img/000000034993.png,experiment,w,o,795.91320000001
V3,9,24,Male,Right,314,Block 3,0.6379755000234582,0.05,true,bus,bus,occlusion,control,mask,partial viewing,many small,Stimulus\all_stim\occlusion\partialviewing\manysmall\control\manysmall_partialViewing_control_bus5.png,mask_img/000000037140.png,experiment,i,i,797.5612491999636
V3,9,24,Male,Right,315,Block 3,0.5836043999879621,0.025,true,bus,bus,occlusion,high,mask,partial viewing,few large,Stimulus\all_stim\occlusion\partialviewing\fewlarge\high\fewlarge_partialViewing_high_bus3.png,mask_img/000000015908.png,experiment,i,i,799.0731762999785
V3,9,24,Male,Right,316,Block 3,0.8060078999842517,0.025,true,building,building,occlusion,high,mask,partial viewing,many small,Stimulus\all_stim\occlusion\partialviewing\manysmall\high\manysmall_partialViewing_high_building7.png,mask_img/000000046171.png,experiment,p,p,801.033278799965
V3,9,24,Male,Right,317,Block 3,0.9294676000135951,0.025,true,banana,banana,occlusion,control,mask,partial viewing,many small,Stimulus\all_stim\occlusion\partialviewing\manysmall\control\manysmall_partialViewing_control_banana1.png,mask_img/000000033073.png,experiment,e,e,803.0730582000106
V3,9,24,Male,Right,318,Block 3,0.7033556000096723,0.025,true,tree,tree,occlusion,high,mask,partial viewing,many small,Stimulus\all_stim\occlusion\partialviewing\manysmall\high\manysmall_partialViewing_high_tree7.png,mask_img/000000053635.png,experiment,r,r,804.8411654999945
V3,9,24,Male,Right,319,Block 3,1.0427243000012822,0.025,true,building,building,occlusion,low,mask,partial viewing,few large,Stimulus\all_stim\occlusion\partialviewing\fewlarge\low\fewlarge_partialViewing_low_building5.png,mask_img/000000025034.png,experiment,p,p,806.7696195999742
V3,9,24,Male,Right,320,Block 3,0.7176560999942012,0.05,true,tree,tree,occlusion,high,mask,partial viewing,few large,Stimulus\all_stim\occlusion\partialviewing\fewlarge\high\fewlarge_partialViewing_high_tree5.png,mask_img/000000022102.png,experiment,r,r,808.5692671000143
V3,9,24,Male,Right,321,Block 3,1.1960713000153191,0.05,false,bird,tree,occlusion,high,mask,partial viewing,many small,Stimulus\all_stim\occlusion\partialviewing\manysmall\high\manysmall_partialViewing_high_bird9.png,mask_img/000000044946.png,experiment,r,o,810.6410784000182
V3,9,24,Male,Right,322,Block 3,0.5487406000029296,0.1,true,tree,tree,occlusion,control,mask,partial viewing,few large,Stimulus\all_stim\occlusion\partialviewing\fewlarge\control\fewlarge_partialViewing_control_tree7.png,mask_img/000000011504.png,experiment,r,r,811.8681526000146
V3,9,24,Male,Right,323,Block 3,1.0351610999787226,0.05,false,cat,tree,occlusion,low,mask,partial viewing,many small,Stimulus\all_stim\occlusion\partialviewing\manysmall\low\manysmall_partialViewing_low_cat3.png,mask_img/000000059442.png,experiment,r,u,813.6017075999989
V3,9,24,Male,Right,324,Block 3,0.7746411000262015,0.025,true,cat,cat,occlusion,low,mask,partial viewing,few large,Stimulus\all_stim\occlusion\partialviewing\fewlarge\low\fewlarge_partialViewing_low_cat6.png,mask_img/000000027764.png,experiment,u,u,815.0730138999643
V3,9,24,Male,Right,325,Block 3,0.894713599991519,0.05,true,banana,banana,occlusion,low,mask,partial viewing,few large,Stimulus\all_stim\occlusion\partialviewing\fewlarge\low\fewlarge_partialViewing_low_banana8.png,mask_img/000000023656.png,experiment,e,e,816.6730627999641
V3,9,24,Male,Right,326,Block 3,1.0390241999994032,0.025,true,banana,banana,occlusion,high,mask,partial viewing,few large,Stimulus\all_stim\occlusion\partialviewing\fewlarge\high\fewlarge_partialViewing_high_banana7.png,mask_img/000000012567.png,experiment,e,e,818.7369804999908
V3,9,24,Male,Right,327,Block 3,0.587705800018739,0.05,true,banana,banana,occlusion,control,mask,partial viewing,few large,Stimulus\all_stim\occlusion\partialviewing\fewlarge\control\fewlarge_partialViewing_control_banana10.png,mask_img/000000000109.png,experiment,e,e,820.1211629000027
V3,9,24,Male,Right,328,Block 3,0.7484430000185966,0.1,true,person,person,occlusion,high,mask,partial viewing,few large,Stimulus\all_stim\occlusion\partialviewing\fewlarge\high\fewlarge_partialViewing_high_person8.png,mask_img/000000020570.png,experiment,q,q,821.9294095999794
V3,9,24,Male,Right,329,Block 3,0.7765939999953844,0.05,true,building,building,occlusion,high,mask,partial viewing,many small,Stimulus\all_stim\occlusion\partialviewing\manysmall\high\manysmall_partialViewing_high_building3.png,mask_img/000000045655.png,experiment,p,p,823.6250279999804
V3,9,24,Male,Right,330,Block 3,0.6776478000101633,0.025,true,person,person,occlusion,high,mask,partial viewing,few large,Stimulus\all_stim\occlusion\partialviewing\fewlarge\high\fewlarge_partialViewing_high_person9.png,mask_img/000000021003.png,experiment,q,q,825.3129981000093
V3,9,24,Male,Right,331,Block 3,0.6663048000191338,0.05,true,building,building,occlusion,control,mask,partial viewing,many small,Stimulus\all_stim\occlusion\partialviewing\manysmall\control\manysmall_partialViewing_control_building6.png,mask_img/000000036006.png,experiment,p,p,826.806835299998
V3,9,24,Male,Right,332,Block 3,0.8586526000290178,0.1,true,bird,bird,occlusion,low,mask,partial viewing,many small,Stimulus\all_stim\occlusion\partialviewing\manysmall\low\manysmall_partialViewing_low_bird6.png,mask_img/000000056007.png,experiment,o,o,828.4732031999738
V3,9,24,Male,Right,333,Block 3,0.9333448000252247,0.1,false,cat,tree,occlusion,high,mask,partial viewing,many small,Stimulus\all_stim\occlusion\partialviewing\manysmall\high\manysmall_partialViewing_high_cat10.png,mask_img/000000048929.png,experiment,r,u,830.489575799962
V3,9,24,Male,Right,334,Block 3,0.7155211000354029,0.05,false,cat,bus,occlusion,low,mask,partial viewing,few large,Stimulus\all_stim\occlusion\partialviewing\fewlarge\low\fewlarge_partialViewing_low_cat2.png,mask_img/000000027371.png,experiment,i,u,832.041130699974
V3,9,24,Male,Right,335,Block 3,1.0398712999885902,0.05,true,bus,bus,occlusion,control,mask,partial viewing,few large,Stimulus\all_stim\occlusion\partialviewing\fewlarge\control\fewlarge_partialViewing_control_bus2.png,mask_img/000000005359.png,experiment,i,i,834.1933029000065
V3,9,24,Male,Right,336,Block 3,1.2408815000089817,0.1,true,cat,cat,occlusion,low,mask,partial viewing,few large,Stimulus\all_stim\occlusion\partialviewing\fewlarge\low\fewlarge_partialViewing_low_cat10.png,mask_img/000000027319.png,experiment,u,u,836.1769649999915
V3,9,24,Male,Right,337,Block 3,0.8346614000038244,0.1,true,building,building,occlusion,low,mask,partial viewing,many small,Stimulus\all_stim\occlusion\partialviewing\manysmall\low\manysmall_partialViewing_low_building4.png,mask_img/000000057782.png,experiment,p,p,838.0012054999825
V3,9,24,Male,Right,338,Block 3,1.230653100006748,0.05,true,banana,banana,occlusion,high,mask,partial viewing,many small,Stimulus\all_stim\occlusion\partialviewing\manysmall\high\manysmall_partialViewing_high_banana10.png,mask_img/000000042196.png,experiment,e,e,840.2972332999925
V3,9,24,Male,Right,339,Block 3,1.1953243000316434,0.05,false,bird,cat,occlusion,control,mask,partial viewing,many small,Stimulus\all_stim\occlusion\partialviewing\manysmall\control\manysmall_partialViewing_control_bird1.png,mask_img/000000034113.png,experiment,u,o,842.185431699967
V3,9,24,Male,Right,340,Block 3,0.7959535000263713,0.05,true,tree,tree,occlusion,low,mask,partial viewing,few large,Stimulus\all_stim\occlusion\partialviewing\fewlarge\low\fewlarge_partialViewing_low_tree1.png,mask_img/000000031053.png,experiment,r,r,843.9933189000003
