Version,pt_num,Age,Gender,Handedness,trial_nbr,block_number,rt,soa,acc,category,choiced_category,manipulation,difficulty,mask,type_occl,size_occl,filename,mask_filename,task,pressed_key,correct_key,Experiment Duration
V3,21,21,Female,Right,1,Training,5.159661199984839,0.1,false,bird,building,occlusion,high,mask,partial viewing,many small,Training_Stimulus\manysmall_partialViewing_high_bird4.png,mask_img/000000005418.png,training,w,i,146.34172249998664
V3,21,21,Female,Right,2,Training,2.1065148999914527,0.1,true,person,person,occlusion,high,mask,partial viewing,few large,Training_Stimulus\fewlarge_partialViewing_high_person189.png,mask_img/000000001997.png,training,r,r,149.6071840999939
V3,21,21,Female,Right,3,Training,1.4242962999851443,0.1,true,building,building,occlusion,low,mask,partial viewing,many small,Training_Stimulus\manysmall_partialViewing_low_building24.png,mask_img/000000006489.png,training,w,w,152.7321949999896
V3,21,21,Female,Right,4,Training,1.5901459000015166,0.025,true,person,person,occlusion,high,mask,partial viewing,few large,Training_Stimulus\fewlarge_partialViewing_high_person189.png,mask_img/000000001997.png,training,r,r,155.51461089999066
V3,21,21,Female,Right,5,Training,2.0815998000034597,0.05,false,cat,tree,occlusion,low,mask,partial viewing,many small,Training_Stimulus\manysmall_partialViewing_low_cat432.png,mask_img/000000006842.png,training,o,e,158.7961039999791
V3,21,21,Female,Right,6,Training,1.749163700005738,0.1,true,person,person,occlusion,control,mask,partial viewing,few large,Training_Stimulus\fewlarge_partialViewing_control_person189.png,mask_img/000000000595.png,training,r,r,162.0818102999765
V3,21,21,Female,Right,7,Training,1.7826155999791808,0.05,false,tree,banana,occlusion,high,mask,partial viewing,many small,Training_Stimulus\manysmall_partialViewing_high_tree9.png,mask_img/000000006263.png,training,p,o,164.97284789997502
V3,21,21,Female,Right,8,Training,2.077794000011636,0.1,true,bird,bird,occlusion,high,mask,partial viewing,few large,Training_Stimulus\fewlarge_partialViewing_high_bird4.png,mask_img/000000000731.png,training,i,i,168.40974919998553
V3,21,21,Female,Right,9,Training,1.8615927000064403,0.025,true,tree,tree,occlusion,low,mask,partial viewing,few large,Training_Stimulus\fewlarge_partialViewing_low_tree9.png,mask_img/000000003694.png,training,o,o,171.41036429998348
V3,21,21,Female,Right,10,Training,1.2894231999816839,0.1,true,building,building,occlusion,control,mask,partial viewing,many small,Training_Stimulus\manysmall_partialViewing_control_building24.png,mask_img/000000004739.png,training,w,w,173.80090659999405
V3,21,21,Female,Right,11,Training,1.7875237000116613,0.025,true,bird,bird,occlusion,low,mask,partial viewing,few large,Training_Stimulus\fewlarge_partialViewing_low_bird4.png,mask_img/000000002774.png,training,i,i,176.78525269997772
V3,21,21,Female,Right,12,Training,1.9604434999928344,0.025,true,banana,banana,occlusion,control,mask,partial viewing,few large,Training_Stimulus\fewlarge_partialViewing_control_banana454.png,mask_img/000000000042.png,training,p,p,180.28524569998262
V3,21,21,Female,Right,13,Training,1.9861931999912485,0.025,false,banana,bird,occlusion,low,mask,partial viewing,many small,Training_Stimulus\manysmall_partialViewing_low_banana454.png,mask_img/000000006437.png,training,i,p,183.83221219998086
V3,21,21,Female,Right,14,Training,2.117227999988245,0.05,true,banana,banana,occlusion,control,mask,partial viewing,many small,Training_Stimulus\manysmall_partialViewing_control_banana454.png,mask_img/000000004239.png,training,p,p,187.19276799997897
V3,21,21,Female,Right,15,Training,2.040798600006383,0.025,true,bus,bus,occlusion,low,mask,partial viewing,many small,Training_Stimulus\manysmall_partialViewing_low_bus180.png,mask_img/000000006709.png,training,u,u,190.6144548000011
V3,21,21,Female,Right,16,Training,1.3799055000126828,0.1,true,bird,bird,occlusion,control,mask,partial viewing,few large,Training_Stimulus\fewlarge_partialViewing_control_bird4.png,mask_img/000000000109.png,training,i,i,193.38034029997652
V3,21,21,Female,Right,17,Training,1.610954000003403,0.1,true,bus,bus,occlusion,high,mask,partial viewing,many small,Training_Stimulus\manysmall_partialViewing_high_bus180.png,mask_img/000000005615.png,training,u,u,196.1003787999798
V3,21,21,Female,Right,18,Training,1.3432691000052728,0.05,true,tree,tree,occlusion,low,mask,partial viewing,few large,Training_Stimulus\fewlarge_partialViewing_low_tree9.png,mask_img/000000003694.png,training,o,o,198.8684249999933
V3,21,21,Female,Right,19,Training,1.109992699988652,0.05,true,tree,tree,occlusion,high,mask,partial viewing,few large,Training_Stimulus\fewlarge_partialViewing_high_tree9.png,mask_img/000000002197.png,training,o,o,201.2269440999953
V3,21,21,Female,Right,20,Training,2.4694028999947477,0.1,false,tree,cat,occlusion,high,mask,partial viewing,many small,Training_Stimulus\manysmall_partialViewing_high_tree9.png,mask_img/000000006263.png,training,e,o,205.0241318999906
V3,21,21,Female,Right,21,Training,1.0752486000128556,0.1,true,cat,cat,occlusion,control,mask,partial viewing,many small,Training_Stimulus\manysmall_partialViewing_control_cat432.png,mask_img/000000005105.png,training,e,e,207.57077469999786
V3,21,21,Female,Right,22,Training,1.4858246999792755,0.05,true,bus,bus,occlusion,low,mask,partial viewing,many small,Training_Stimulus\manysmall_partialViewing_low_bus180.png,mask_img/000000006709.png,training,u,u,210.41587859997526
V3,21,21,Female,Right,23,Training,1.141761500010034,0.1,true,building,building,occlusion,high,mask,partial viewing,few large,Training_Stimulus\fewlarge_partialViewing_high_building24.png,mask_img/000000000873.png,training,w,w,212.80666169998585
V3,21,21,Female,Right,24,Training,1.102849699993385,0.05,false,person,firehydrant,occlusion,high,mask,partial viewing,many small,Training_Stimulus\manysmall_partialViewing_high_person189.png,mask_img/000000006153.png,training,q,r,214.99417619997985
V3,21,21,Female,Right,25,Training,1.1543761999928392,0.025,true,bird,bird,occlusion,control,mask,partial viewing,few large,Training_Stimulus\fewlarge_partialViewing_control_bird4.png,mask_img/000000000109.png,training,i,i,217.65021589997923
V3,21,21,Female,Right,26,Training,1.52405480001471,0.1,false,banana,tree,occlusion,high,mask,partial viewing,many small,Training_Stimulus\manysmall_partialViewing_high_banana454.png,mask_img/000000005359.png,training,o,p,220.6673842999735
V3,21,21,Female,Right,27,Training,0.9869750999787357,0.05,true,building,building,occlusion,high,mask,partial viewing,few large,Training_Stimulus\fewlarge_partialViewing_high_building24.png,mask_img/000000000873.png,training,w,w,222.9171477999771
V3,21,21,Female,Right,28,Training,2.625042100000428,0.1,false,firehydrant,bus,occlusion,high,mask,partial viewing,many small,Training_Stimulus\manysmall_partialViewing_high_firehydrant90.png,mask_img/000000006146.png,training,u,q,226.99524109999766
V3,21,21,Female,Right,29,Training,0.9444534000067506,0.1,true,firehydrant,firehydrant,occlusion,control,mask,partial viewing,few large,Training_Stimulus\fewlarge_partialViewing_control_firehydrant90.png,mask_img/000000000459.png,training,q,q,229.27642609999748
V3,21,21,Female,Right,30,Training,0.9745956000115257,0.025,true,firehydrant,firehydrant,occlusion,high,mask,partial viewing,few large,Training_Stimulus\fewlarge_partialViewing_high_firehydrant90.png,mask_img/000000001810.png,training,q,q,231.52719090000028
V3,21,21,Female,Right,31,Training,1.8175888000114355,0.05,false,tree,bird,occlusion,low,mask,partial viewing,many small,Training_Stimulus\manysmall_partialViewing_low_tree9.png,mask_img/000000007325.png,training,i,o,234.9338436999824
V3,21,21,Female,Right,32,Training,1.255990399979055,0.05,true,person,person,occlusion,control,mask,partial viewing,many small,Training_Stimulus\manysmall_partialViewing_control_person189.png,mask_img/000000005142.png,training,r,r,237.46474279998802
V3,21,21,Female,Right,33,Training,1.1010023999842815,0.1,true,bus,bus,occlusion,low,mask,partial viewing,many small,Training_Stimulus\manysmall_partialViewing_low_bus180.png,mask_img/000000006709.png,training,u,u,240.15218559998902
V3,21,21,Female,Right,34,Training,1.339648399996804,0.05,true,cat,cat,occlusion,control,mask,partial viewing,few large,Training_Stimulus\fewlarge_partialViewing_control_cat432.png,mask_img/000000000438.png,training,e,e,242.6521923999826
V3,21,21,Female,Right,35,Training,0.9141480999824125,0.025,true,firehydrant,firehydrant,occlusion,control,mask,partial viewing,many small,Training_Stimulus\manysmall_partialViewing_control_firehydrant90.png,mask_img/000000005131.png,training,q,q,245.0427860999771
V3,21,21,Female,Right,36,Training,1.3148719999880996,0.1,true,person,person,occlusion,low,mask,partial viewing,few large,Training_Stimulus\fewlarge_partialViewing_low_person189.png,mask_img/000000003483.png,training,r,r,247.9191324999847
V3,21,21,Female,Right,37,Training,0.9453393000003416,0.05,true,firehydrant,firehydrant,occlusion,high,mask,partial viewing,few large,Training_Stimulus\fewlarge_partialViewing_high_firehydrant90.png,mask_img/000000001810.png,training,q,q,250.05974849997438
V3,21,21,Female,Right,38,Training,1.305118099990068,0.025,false,cat,bird,occlusion,low,mask,partial viewing,many small,Training_Stimulus\manysmall_partialViewing_low_cat432.png,mask_img/000000006842.png,training,i,e,252.57537429998047
V3,21,21,Female,Right,39,Training,1.328001799993217,0.1,true,cat,cat,occlusion,low,mask,partial viewing,many small,Training_Stimulus\manysmall_partialViewing_low_cat432.png,mask_img/000000006842.png,training,e,e,255.2783982999972
V3,21,21,Female,Right,40,Training,0.9462214999948628,0.025,false,person,building,occlusion,high,mask,partial viewing,many small,Training_Stimulus\manysmall_partialViewing_high_person189.png,mask_img/000000006153.png,training,w,r,257.52937199998996
V3,21,21,Female,Right,41,Training,0.9014885000069626,0.1,true,building,building,occlusion,control,mask,partial viewing,few large,Training_Stimulus\fewlarge_partialViewing_control_building24.png,mask_img/000000000312.png,training,w,w,259.55968489998486
V3,21,21,Female,Right,42,Training,0.8743718000187073,0.1,true,firehydrant,firehydrant,occlusion,high,mask,partial viewing,few large,Training_Stimulus\fewlarge_partialViewing_high_firehydrant90.png,mask_img/000000001810.png,training,q,q,261.7789076999761
V3,21,21,Female,Right,43,Training,0.8810845999978483,0.05,true,building,building,occlusion,control,mask,partial viewing,many small,Training_Stimulus\manysmall_partialViewing_control_building24.png,mask_img/000000004739.png,training,w,w,263.8571648999932
V3,21,21,Female,Right,44,Training,1.6380183000001125,0.05,false,cat,bird,occlusion,high,mask,partial viewing,many small,Training_Stimulus\manysmall_partialViewing_high_cat432.png,mask_img/000000005862.png,training,i,e,266.9820554999751
V3,21,21,Female,Right,45,Training,1.402625699993223,0.025,true,cat,cat,occlusion,control,mask,partial viewing,few large,Training_Stimulus\fewlarge_partialViewing_control_cat432.png,mask_img/000000000438.png,training,e,e,269.73215579998214
V3,21,21,Female,Right,46,Training,1.558368199999677,0.025,true,bus,bus,occlusion,high,mask,partial viewing,many small,Training_Stimulus\manysmall_partialViewing_high_bus180.png,mask_img/000000005615.png,training,u,u,272.38839469998493
V3,21,21,Female,Right,47,Training,1.6475213000085205,0.1,true,banana,banana,occlusion,high,mask,partial viewing,few large,Training_Stimulus\fewlarge_partialViewing_high_banana454.png,mask_img/000000000690.png,training,p,p,275.6244904999912
V3,21,21,Female,Right,48,Training,0.911428799998248,0.025,true,building,building,occlusion,low,mask,partial viewing,many small,Training_Stimulus\manysmall_partialViewing_low_building24.png,mask_img/000000006489.png,training,w,w,277.7958094999776
V3,21,21,Female,Right,49,Training,1.2169698999787215,0.025,true,banana,banana,occlusion,high,mask,partial viewing,few large,Training_Stimulus\fewlarge_partialViewing_high_banana454.png,mask_img/000000000690.png,training,p,p,280.5613085999794
V3,21,21,Female,Right,50,Training,1.2176190999743994,0.05,true,bird,bird,occlusion,high,mask,partial viewing,many small,Training_Stimulus\manysmall_partialViewing_high_bird4.png,mask_img/000000005418.png,training,i,i,283.31145849998575
V3,21,21,Female,Right,51,Training,0.9958761000016239,0.1,true,bird,bird,occlusion,control,mask,partial viewing,many small,Training_Stimulus\manysmall_partialViewing_control_bird4.png,mask_img/000000004642.png,training,i,i,285.6886875999917
V3,21,21,Female,Right,52,Training,1.147047799982829,0.05,true,person,person,occlusion,high,mask,partial viewing,few large,Training_Stimulus\fewlarge_partialViewing_high_person189.png,mask_img/000000001997.png,training,r,r,288.23494460000074
V3,21,21,Female,Right,1,Block 1,1.0840159000072163,0.025,true,tree,tree,occlusion,control,mask,partial viewing,many small,Stimulus\all_stim\occlusion\partialviewing\manysmall\control\manysmall_partialViewing_control_tree6.png,mask_img/000000041272.png,experiment,o,o,303.5019178999937
V3,21,21,Female,Right,2,Block 1,0.8477740999951493,0.05,true,tree,tree,occlusion,high,mask,partial viewing,few large,Stimulus\all_stim\occlusion\partialviewing\fewlarge\high\fewlarge_partialViewing_high_tree10.png,mask_img/000000021419.png,experiment,o,o,305.3097070999793
V3,21,21,Female,Right,3,Block 1,0.9010444000014104,0.05,true,building,building,occlusion,high,mask,partial viewing,few large,Stimulus\all_stim\occlusion\partialviewing\fewlarge\high\fewlarge_partialViewing_high_building2.png,mask_img/000000014472.png,experiment,w,w,306.9578709999914
V3,21,21,Female,Right,4,Block 1,0.9397231999901123,0.1,true,tree,tree,occlusion,low,mask,partial viewing,many small,Stimulus\all_stim\occlusion\partialviewing\manysmall\low\manysmall_partialViewing_low_tree9.png,mask_img/000000063867.png,experiment,o,o,308.58154069999
V3,21,21,Female,Right,5,Block 1,0.8225468999880832,0.025,false,bus,building,occlusion,high,mask,partial viewing,few large,Stimulus\all_stim\occlusion\partialviewing\fewlarge\high\fewlarge_partialViewing_high_bus5.png,mask_img/000000015986.png,experiment,w,u,310.3018249999732
V3,21,21,Female,Right,6,Block 1,0.9449529999983497,0.1,true,person,person,occlusion,low,mask,partial viewing,few large,Stimulus\all_stim\occlusion\partialviewing\fewlarge\low\fewlarge_partialViewing_low_person10.png,mask_img/000000029128.png,experiment,r,r,311.9419668999908
V3,21,21,Female,Right,7,Block 1,0.7823487000132445,0.1,true,firehydrant,firehydrant,occlusion,high,mask,partial viewing,few large,Stimulus\all_stim\occlusion\partialviewing\fewlarge\high\fewlarge_partialViewing_high_firehydrant5.png,mask_img/000000018982.png,experiment,q,q,313.4377076999808
V3,21,21,Female,Right,8,Block 1,1.3177977000013925,0.025,true,tree,tree,occlusion,high,mask,partial viewing,many small,Stimulus\all_stim\occlusion\partialviewing\manysmall\high\manysmall_partialViewing_high_tree7.png,mask_img/000000053635.png,experiment,o,o,315.4378416999825
V3,21,21,Female,Right,9,Block 1,0.8615769000025466,0.1,true,building,building,occlusion,high,mask,partial viewing,few large,Stimulus\all_stim\occlusion\partialviewing\fewlarge\high\fewlarge_partialViewing_high_building4.png,mask_img/000000014592.png,experiment,w,w,317.2938649999851
V3,21,21,Female,Right,10,Block 1,0.9284379000018816,0.05,true,tree,tree,occlusion,control,mask,partial viewing,many small,Stimulus\all_stim\occlusion\partialviewing\manysmall\control\manysmall_partialViewing_control_tree10.png,mask_img/000000040948.png,experiment,o,o,319.07772179998574
V3,21,21,Female,Right,11,Block 1,0.8788616999809165,0.025,true,bus,bus,occlusion,high,mask,partial viewing,many small,Stimulus\all_stim\occlusion\partialviewing\manysmall\high\manysmall_partialViewing_high_bus9.png,mask_img/000000048268.png,experiment,u,u,321.046050999983
V3,21,21,Female,Right,12,Block 1,0.7103647000039928,0.05,true,banana,banana,occlusion,low,mask,partial viewing,few large,Stimulus\all_stim\occlusion\partialviewing\fewlarge\low\fewlarge_partialViewing_low_banana10.png,mask_img/000000022563.png,experiment,p,p,322.5900266999961
V3,21,21,Female,Right,13,Block 1,1.5627959000121336,0.025,false,bird,tree,occlusion,high,mask,partial viewing,many small,Stimulus\all_stim\occlusion\partialviewing\manysmall\high\manysmall_partialViewing_high_bird6.png,mask_img/000000044523.png,experiment,o,i,325.08595649999916
V3,21,21,Female,Right,14,Block 1,0.7659908000205178,0.1,false,bus,building,occlusion,low,mask,partial viewing,many small,Stimulus\all_stim\occlusion\partialviewing\manysmall\low\manysmall_partialViewing_low_bus10.png,mask_img/000000058595.png,experiment,w,u,326.5576690999733
V3,21,21,Female,Right,15,Block 1,0.8890625999774784,0.1,true,tree,tree,occlusion,high,mask,partial viewing,few large,Stimulus\all_stim\occlusion\partialviewing\fewlarge\high\fewlarge_partialViewing_high_tree6.png,mask_img/000000022142.png,experiment,o,o,328.2456455999927
V3,21,21,Female,Right,16,Block 1,0.8325478000042494,0.05,true,person,person,occlusion,control,mask,partial viewing,few large,Stimulus\all_stim\occlusion\partialviewing\fewlarge\control\fewlarge_partialViewing_control_person9.png,mask_img/000000009809.png,experiment,r,r,330.1421785999846
V3,21,21,Female,Right,17,Block 1,0.8568143000011332,0.1,true,person,person,occlusion,control,mask,partial viewing,many small,Stimulus\all_stim\occlusion\partialviewing\manysmall\control\manysmall_partialViewing_control_person6.png,mask_img/000000040325.png,experiment,r,r,331.6858153999783
V3,21,21,Female,Right,18,Block 1,0.7575477000209503,0.025,true,banana,banana,occlusion,high,mask,partial viewing,few large,Stimulus\all_stim\occlusion\partialviewing\fewlarge\high\fewlarge_partialViewing_high_banana9.png,mask_img/000000012999.png,experiment,p,p,333.58167359998333
V3,21,21,Female,Right,19,Block 1,1.4546808999730274,0.025,false,firehydrant,bus,occlusion,low,mask,partial viewing,many small,Stimulus\all_stim\occlusion\partialviewing\manysmall\low\manysmall_partialViewing_low_firehydrant6.png,mask_img/000000060647.png,experiment,u,q,335.77381099999184
V3,21,21,Female,Right,20,Block 1,1.235684700019192,0.05,true,bus,bus,occlusion,control,mask,partial viewing,many small,Stimulus\all_stim\occlusion\partialviewing\manysmall\control\manysmall_partialViewing_control_bus2.png,mask_img/000000036622.png,experiment,u,u,337.9658656999818
V3,21,21,Female,Right,21,Block 1,0.8422842000145465,0.1,true,person,person,occlusion,low,mask,partial viewing,few large,Stimulus\all_stim\occlusion\partialviewing\fewlarge\low\fewlarge_partialViewing_low_person8.png,mask_img/000000030611.png,experiment,r,r,339.85402729999623
V3,21,21,Female,Right,22,Block 1,0.8047858000209089,0.1,true,building,building,occlusion,low,mask,partial viewing,few large,Stimulus\all_stim\occlusion\partialviewing\fewlarge\low\fewlarge_partialViewing_low_building4.png,mask_img/000000024912.png,experiment,w,w,341.4778954999929
V3,21,21,Female,Right,23,Block 1,1.3967229999834672,0.025,false,bird,tree,occlusion,high,mask,partial viewing,many small,Stimulus\all_stim\occlusion\partialviewing\manysmall\high\manysmall_partialViewing_high_bird7.png,mask_img/000000044580.png,experiment,o,i,343.5664716999745
V3,21,21,Female,Right,24,Block 1,0.7638587999972515,0.1,true,banana,banana,occlusion,low,mask,partial viewing,few large,Stimulus\all_stim\occlusion\partialviewing\fewlarge\low\fewlarge_partialViewing_low_banana8.png,mask_img/000000023656.png,experiment,p,p,345.42204949998995
V3,21,21,Female,Right,25,Block 1,2.451941999985138,0.05,true,bird,bird,occlusion,high,mask,partial viewing,few large,Stimulus\all_stim\occlusion\partialviewing\fewlarge\high\fewlarge_partialViewing_high_bird9.png,mask_img/000000014175.png,experiment,i,i,348.598419499991
V3,21,21,Female,Right,26,Block 1,1.181617099995492,0.1,false,cat,person,occlusion,control,mask,partial viewing,few large,Stimulus\all_stim\occlusion\partialviewing\fewlarge\control\fewlarge_partialViewing_control_cat5.png,mask_img/000000006870.png,experiment,r,e,350.7424363999744
V3,21,21,Female,Right,27,Block 1,1.3314687000238337,0.05,false,person,bird,occlusion,high,mask,partial viewing,many small,Stimulus\all_stim\occlusion\partialviewing\manysmall\high\manysmall_partialViewing_high_person5.png,mask_img/000000052250.png,experiment,i,r,353.1100818999985
V3,21,21,Female,Right,28,Block 1,0.9017787000047974,0.025,true,banana,banana,occlusion,control,mask,partial viewing,few large,Stimulus\all_stim\occlusion\partialviewing\fewlarge\control\fewlarge_partialViewing_control_banana6.png,mask_img/000000000595.png,experiment,p,p,355.13387109999894
V3,21,21,Female,Right,29,Block 1,1.262942600005772,0.1,true,bus,bus,occlusion,control,mask,partial viewing,many small,Stimulus\all_stim\occlusion\partialviewing\manysmall\control\manysmall_partialViewing_control_bus3.png,mask_img/000000036765.png,experiment,u,u,357.3019764999917
V3,21,21,Female,Right,30,Block 1,0.9539419999928214,0.025,true,tree,tree,occlusion,high,mask,partial viewing,many small,Stimulus\all_stim\occlusion\partialviewing\manysmall\high\manysmall_partialViewing_high_tree4.png,mask_img/000000053143.png,experiment,o,o,359.3980041999894
V3,21,21,Female,Right,31,Block 1,0.7040731000015512,0.025,true,building,building,occlusion,control,mask,partial viewing,many small,Stimulus\all_stim\occlusion\partialviewing\manysmall\control\manysmall_partialViewing_control_building4.png,mask_img/000000035985.png,experiment,w,w,361.10204800000065
V3,21,21,Female,Right,32,Block 1,1.258751300018048,0.05,false,firehydrant,bird,occlusion,high,mask,partial viewing,many small,Stimulus\all_stim\occlusion\partialviewing\manysmall\high\manysmall_partialViewing_high_firehydrant10.png,mask_img/000000050148.png,experiment,i,q,363.42180399998324
V3,21,21,Female,Right,33,Block 1,0.7930919000064023,0.025,true,banana,banana,occlusion,high,mask,partial viewing,few large,Stimulus\all_stim\occlusion\partialviewing\fewlarge\high\fewlarge_partialViewing_high_banana3.png,mask_img/000000012313.png,experiment,p,p,364.9659034999786
V3,21,21,Female,Right,34,Block 1,0.6548483000078704,0.1,true,firehydrant,firehydrant,occlusion,control,mask,partial viewing,few large,Stimulus\all_stim\occlusion\partialviewing\fewlarge\control\fewlarge_partialViewing_control_firehydrant5.png,mask_img/000000008006.png,experiment,q,q,366.6633147999819
V3,21,21,Female,Right,35,Block 1,1.4311534999869764,0.025,false,bird,firehydrant,occlusion,high,mask,partial viewing,few large,Stimulus\all_stim\occlusion\partialviewing\fewlarge\high\fewlarge_partialViewing_high_bird3.png,mask_img/000000013455.png,experiment,q,i,369.03831049997825
V3,21,21,Female,Right,36,Block 1,0.9237375999800861,0.1,true,banana,banana,occlusion,low,mask,partial viewing,many small,Stimulus\all_stim\occlusion\partialviewing\manysmall\low\manysmall_partialViewing_low_banana10.png,mask_img/000000054723.png,experiment,p,p,370.7659279999789
V3,21,21,Female,Right,37,Block 1,1.321382399997674,0.05,true,bird,bird,occlusion,low,mask,partial viewing,few large,Stimulus\all_stim\occlusion\partialviewing\fewlarge\low\fewlarge_partialViewing_low_bird8.png,mask_img/000000024404.png,experiment,i,i,373.12617859998136
V3,21,21,Female,Right,38,Block 1,0.8671639999956824,0.1,false,bus,person,occlusion,control,mask,partial viewing,few large,Stimulus\all_stim\occlusion\partialviewing\fewlarge\control\fewlarge_partialViewing_control_bus1.png,mask_img/000000005142.png,experiment,r,u,375.0621591999952
V3,21,21,Female,Right,39,Block 1,0.8796686999849044,0.1,true,bus,bus,occlusion,low,mask,partial viewing,many small,Stimulus\all_stim\occlusion\partialviewing\manysmall\low\manysmall_partialViewing_low_bus4.png,mask_img/000000058701.png,experiment,u,u,376.71776780000073
V3,21,21,Female,Right,40,Block 1,1.305923600011738,0.05,false,cat,bird,occlusion,low,mask,partial viewing,few large,Stimulus\all_stim\occlusion\partialviewing\fewlarge\low\fewlarge_partialViewing_low_cat10.png,mask_img/000000027319.png,experiment,i,e,379.1739289999823
V3,21,21,Female,Right,41,Block 1,0.8817120000021532,0.025,true,building,building,occlusion,high,mask,partial viewing,few large,Stimulus\all_stim\occlusion\partialviewing\fewlarge\high\fewlarge_partialViewing_high_building2.png,mask_img/000000014472.png,experiment,w,w,380.7338422999892
V3,21,21,Female,Right,42,Block 1,0.8403183000045829,0.05,true,person,person,occlusion,control,mask,partial viewing,many small,Stimulus\all_stim\occlusion\partialviewing\manysmall\control\manysmall_partialViewing_control_person5.png,mask_img/000000040275.png,experiment,r,r,382.2859843999904
V3,21,21,Female,Right,43,Block 1,1.4296078000043053,0.1,false,cat,bird,occlusion,high,mask,partial viewing,many small,Stimulus\all_stim\occlusion\partialviewing\manysmall\high\manysmall_partialViewing_high_cat3.png,mask_img/000000049254.png,experiment,i,e,384.7341206999845
V3,21,21,Female,Right,44,Block 1,0.811682200001087,0.025,true,tree,tree,occlusion,high,mask,partial viewing,few large,Stimulus\all_stim\occlusion\partialviewing\fewlarge\high\fewlarge_partialViewing_high_tree2.png,mask_img/000000021641.png,experiment,o,o,386.3419010999787
V3,21,21,Female,Right,45,Block 1,1.0114560000074562,0.1,false,bird,tree,occlusion,low,mask,partial viewing,many small,Stimulus\all_stim\occlusion\partialviewing\manysmall\low\manysmall_partialViewing_low_bird4.png,mask_img/000000055859.png,experiment,o,i,388.0939608999761
V3,21,21,Female,Right,46,Block 1,0.8541514999815263,0.05,true,banana,banana,occlusion,high,mask,partial viewing,few large,Stimulus\all_stim\occlusion\partialviewing\fewlarge\high\fewlarge_partialViewing_high_banana1.png,mask_img/000000011754.png,experiment,p,p,389.7418316999974
V3,21,21,Female,Right,47,Block 1,0.6886859000078402,0.025,true,firehydrant,firehydrant,occlusion,control,mask,partial viewing,few large,Stimulus\all_stim\occlusion\partialviewing\fewlarge\control\fewlarge_partialViewing_control_firehydrant10.png,mask_img/000000007758.png,experiment,q,q,391.3182235999848
V3,21,21,Female,Right,48,Block 1,0.9208864000102039,0.025,true,person,person,occlusion,low,mask,partial viewing,few large,Stimulus\all_stim\occlusion\partialviewing\fewlarge\low\fewlarge_partialViewing_low_person4.png,mask_img/000000029730.png,experiment,r,r,393.2539293000009
V3,21,21,Female,Right,49,Block 1,0.8730750000104308,0.1,true,firehydrant,firehydrant,occlusion,control,mask,partial viewing,few large,Stimulus\all_stim\occlusion\partialviewing\fewlarge\control\fewlarge_partialViewing_control_firehydrant8.png,mask_img/000000008193.png,experiment,q,q,395.2218583999784
V3,21,21,Female,Right,50,Block 1,0.8683001000026707,0.1,true,firehydrant,firehydrant,occlusion,high,mask,partial viewing,few large,Stimulus\all_stim\occlusion\partialviewing\fewlarge\high\fewlarge_partialViewing_high_firehydrant2.png,mask_img/000000018743.png,experiment,q,q,396.83812780000153
V3,21,21,Female,Right,51,Block 1,1.4953852999897208,0.1,false,bird,building,occlusion,low,mask,partial viewing,many small,Stimulus\all_stim\occlusion\partialviewing\manysmall\low\manysmall_partialViewing_low_bird5.png,mask_img/000000055942.png,experiment,w,i,399.4225015999982
V3,21,21,Female,Right,52,Block 1,1.2292187999992166,0.025,true,bus,bus,occlusion,high,mask,partial viewing,many small,Stimulus\all_stim\occlusion\partialviewing\manysmall\high\manysmall_partialViewing_high_bus4.png,mask_img/000000047316.png,experiment,u,u,401.53420269998605
V3,21,21,Female,Right,53,Block 1,0.9859870999935083,0.05,true,cat,cat,occlusion,high,mask,partial viewing,few large,Stimulus\all_stim\occlusion\partialviewing\fewlarge\high\fewlarge_partialViewing_high_cat1.png,mask_img/000000017183.png,experiment,e,e,403.3262778999924
V3,21,21,Female,Right,54,Block 1,0.9090538999880664,0.025,true,bus,bus,occlusion,control,mask,partial viewing,many small,Stimulus\all_stim\occlusion\partialviewing\manysmall\control\manysmall_partialViewing_control_bus6.png,mask_img/000000037174.png,experiment,u,u,405.15001039998606
V3,21,21,Female,Right,55,Block 1,1.451648500020383,0.1,false,firehydrant,bird,occlusion,high,mask,partial viewing,many small,Stimulus\all_stim\occlusion\partialviewing\manysmall\high\manysmall_partialViewing_high_firehydrant8.png,mask_img/000000050794.png,experiment,i,q,407.61392919998616
V3,21,21,Female,Right,56,Block 1,0.9352759000030346,0.1,true,banana,banana,occlusion,high,mask,partial viewing,many small,Stimulus\all_stim\occlusion\partialviewing\manysmall\high\manysmall_partialViewing_high_banana10.png,mask_img/000000042196.png,experiment,p,p,409.5823113999795
V3,21,21,Female,Right,57,Block 1,0.910227299988037,0.1,true,firehydrant,firehydrant,occlusion,high,mask,partial viewing,few large,Stimulus\all_stim\occlusion\partialviewing\fewlarge\high\fewlarge_partialViewing_high_firehydrant3.png,mask_img/000000018864.png,experiment,q,q,411.58994549998897
V3,21,21,Female,Right,58,Block 1,0.864677000005031,0.05,true,tree,tree,occlusion,high,mask,partial viewing,few large,Stimulus\all_stim\occlusion\partialviewing\fewlarge\high\fewlarge_partialViewing_high_tree5.png,mask_img/000000022102.png,experiment,o,o,413.58996519999346
V3,21,21,Female,Right,59,Block 1,0.9898432999907527,0.025,true,bird,bird,occlusion,low,mask,partial viewing,many small,Stimulus\all_stim\occlusion\partialviewing\manysmall\low\manysmall_partialViewing_low_bird9.png,mask_img/000000056641.png,experiment,i,i,415.622658999986
V3,21,21,Female,Right,60,Block 1,0.8526251000002958,0.05,true,firehydrant,firehydrant,occlusion,low,mask,partial viewing,many small,Stimulus\all_stim\occlusion\partialviewing\manysmall\low\manysmall_partialViewing_low_firehydrant5.png,mask_img/000000060623.png,experiment,q,q,417.5261556999758
V3,21,21,Female,Right,61,Block 1,1.0181739999970887,0.1,true,person,person,occlusion,control,mask,partial viewing,few large,Stimulus\all_stim\occlusion\partialviewing\fewlarge\control\fewlarge_partialViewing_control_person5.png,mask_img/000000009286.png,experiment,r,r,419.2700106999837
V3,21,21,Female,Right,62,Block 1,0.8830460999743082,0.1,true,banana,banana,occlusion,low,mask,partial viewing,many small,Stimulus\all_stim\occlusion\partialviewing\manysmall\low\manysmall_partialViewing_low_banana4.png,mask_img/000000055202.png,experiment,p,p,421.13452899997355
V3,21,21,Female,Right,63,Block 1,0.5908041999791749,0.1,true,banana,banana,occlusion,low,mask,partial viewing,few large,Stimulus\all_stim\occlusion\partialviewing\fewlarge\low\fewlarge_partialViewing_low_banana10.png,mask_img/000000022563.png,experiment,p,p,422.6251378999732
V3,21,21,Female,Right,64,Block 1,1.1338256000017282,0.025,true,cat,cat,occlusion,control,mask,partial viewing,few large,Stimulus\all_stim\occlusion\partialviewing\fewlarge\control\fewlarge_partialViewing_control_cat10.png,mask_img/000000006481.png,experiment,e,e,424.6782416999922
V3,21,21,Female,Right,65,Block 1,1.2285452000214718,0.025,true,bus,bus,occlusion,high,mask,partial viewing,many small,Stimulus\all_stim\occlusion\partialviewing\manysmall\high\manysmall_partialViewing_high_bus5.png,mask_img/000000047395.png,experiment,u,u,426.71815529998275
V3,21,21,Female,Right,66,Block 1,0.9496108000166714,0.025,true,bus,bus,occlusion,low,mask,partial viewing,few large,Stimulus\all_stim\occlusion\partialviewing\fewlarge\low\fewlarge_partialViewing_low_bus3.png,mask_img/000000025997.png,experiment,u,u,428.6463291999826
V3,21,21,Female,Right,67,Block 1,0.8677249000174925,0.1,true,building,building,occlusion,low,mask,partial viewing,few large,Stimulus\all_stim\occlusion\partialviewing\fewlarge\low\fewlarge_partialViewing_low_building6.png,mask_img/000000025143.png,experiment,w,w,430.5179684999748
V3,21,21,Female,Right,68,Block 1,0.918058800016297,0.1,true,tree,tree,occlusion,high,mask,partial viewing,few large,Stimulus\all_stim\occlusion\partialviewing\fewlarge\high\fewlarge_partialViewing_high_tree3.png,mask_img/000000021942.png,experiment,o,o,432.25426469999366
V3,21,21,Female,Right,69,Block 1,0.851061800000025,0.05,true,banana,banana,occlusion,low,mask,partial viewing,few large,Stimulus\all_stim\occlusion\partialviewing\fewlarge\low\fewlarge_partialViewing_low_banana1.png,mask_img/000000022545.png,experiment,p,p,433.89410679999855
V3,21,21,Female,Right,70,Block 1,0.7847151999885682,0.05,true,firehydrant,firehydrant,occlusion,control,mask,partial viewing,few large,Stimulus\all_stim\occlusion\partialviewing\fewlarge\control\fewlarge_partialViewing_control_firehydrant7.png,mask_img/000000008053.png,experiment,q,q,435.48607129999436
V3,21,21,Female,Right,71,Block 1,0.875383900012821,0.1,true,person,person,occlusion,control,mask,partial viewing,few large,Stimulus\all_stim\occlusion\partialviewing\fewlarge\control\fewlarge_partialViewing_control_person6.png,mask_img/000000009469.png,experiment,r,r,437.11004569998477
V3,21,21,Female,Right,72,Block 1,1.11647130001802,0.1,false,bird,cat,occlusion,high,mask,partial viewing,few large,Stimulus\all_stim\occlusion\partialviewing\fewlarge\high\fewlarge_partialViewing_high_bird1.png,mask_img/000000013061.png,experiment,e,i,439.2379932999902
V3,21,21,Female,Right,73,Block 1,1.0113008000189438,0.1,true,bus,bus,occlusion,low,mask,partial viewing,many small,Stimulus\all_stim\occlusion\partialviewing\manysmall\low\manysmall_partialViewing_low_bus3.png,mask_img/000000058647.png,experiment,u,u,441.3660640999733
V3,21,21,Female,Right,74,Block 1,0.7802252999972552,0.1,true,firehydrant,firehydrant,occlusion,low,mask,partial viewing,few large,Stimulus\all_stim\occlusion\partialviewing\fewlarge\low\fewlarge_partialViewing_low_firehydrant9.png,mask_img/000000029056.png,experiment,q,q,443.15026269998634
V3,21,21,Female,Right,75,Block 1,0.8556586999911815,0.025,true,building,building,occlusion,control,mask,partial viewing,few large,Stimulus\all_stim\occlusion\partialviewing\fewlarge\control\fewlarge_partialViewing_control_building10.png,mask_img/000000003225.png,experiment,w,w,445.00660199997947
V3,21,21,Female,Right,76,Block 1,0.707651899982011,0.05,true,firehydrant,firehydrant,occlusion,high,mask,partial viewing,few large,Stimulus\all_stim\occlusion\partialviewing\fewlarge\high\fewlarge_partialViewing_high_firehydrant6.png,mask_img/000000019134.png,experiment,q,q,446.67009410000173
V3,21,21,Female,Right,77,Block 1,0.7815260000061244,0.05,true,firehydrant,firehydrant,occlusion,low,mask,partial viewing,few large,Stimulus\all_stim\occlusion\partialviewing\fewlarge\low\fewlarge_partialViewing_low_firehydrant8.png,mask_img/000000028988.png,experiment,q,q,448.4620874999964
V3,21,21,Female,Right,78,Block 1,0.8280264999775682,0.1,false,cat,building,occlusion,high,mask,partial viewing,many small,Stimulus\all_stim\occlusion\partialviewing\manysmall\high\manysmall_partialViewing_high_cat5.png,mask_img/000000049428.png,experiment,w,e,450.2301965999941
V3,21,21,Female,Right,79,Block 1,0.8140975999995135,0.025,true,tree,tree,occlusion,control,mask,partial viewing,few large,Stimulus\all_stim\occlusion\partialviewing\fewlarge\control\fewlarge_partialViewing_control_tree9.png,mask_img/000000011701.png,experiment,o,o,451.95043279998936
V3,21,21,Female,Right,80,Block 1,0.8970783999830019,0.05,true,bird,bird,occlusion,control,mask,partial viewing,many small,Stimulus\all_stim\occlusion\partialviewing\manysmall\control\manysmall_partialViewing_control_bird9.png,mask_img/000000035514.png,experiment,i,i,453.598119399976
V3,21,21,Female,Right,81,Block 1,0.7662120000168215,0.1,true,banana,banana,occlusion,high,mask,partial viewing,few large,Stimulus\all_stim\occlusion\partialviewing\fewlarge\high\fewlarge_partialViewing_high_banana4.png,mask_img/000000012377.png,experiment,p,p,455.0381002999784
V3,21,21,Female,Right,82,Block 1,0.7048840999777894,0.05,true,building,building,occlusion,low,mask,partial viewing,few large,Stimulus\all_stim\occlusion\partialviewing\fewlarge\low\fewlarge_partialViewing_low_building9.png,mask_img/000000025516.png,experiment,w,w,456.6541847999906
V3,21,21,Female,Right,83,Block 1,0.8021362000145018,0.025,false,person,firehydrant,occlusion,low,mask,partial viewing,few large,Stimulus\all_stim\occlusion\partialviewing\fewlarge\low\fewlarge_partialViewing_low_person9.png,mask_img/000000031017.png,experiment,q,r,458.19027779999305
V3,21,21,Female,Right,84,Block 1,0.6538861999870278,0.1,true,building,building,occlusion,high,mask,partial viewing,few large,Stimulus\all_stim\occlusion\partialviewing\fewlarge\high\fewlarge_partialViewing_high_building5.png,mask_img/000000014759.png,experiment,w,w,459.80946499999845
V3,21,21,Female,Right,85,Block 1,0.7494261999963783,0.05,true,firehydrant,firehydrant,occlusion,high,mask,partial viewing,few large,Stimulus\all_stim\occlusion\partialviewing\fewlarge\high\fewlarge_partialViewing_high_firehydrant5.png,mask_img/000000018982.png,experiment,q,q,461.6703875999956
V3,21,21,Female,Right,86,Block 1,0.7834262999822386,0.05,false,bus,building,occlusion,high,mask,partial viewing,few large,Stimulus\all_stim\occlusion\partialviewing\fewlarge\high\fewlarge_partialViewing_high_bus3.png,mask_img/000000015908.png,experiment,w,u,463.3584411999909
V3,21,21,Female,Right,87,Block 1,0.7459006999852136,0.025,false,bird,bus,occlusion,low,mask,partial viewing,many small,Stimulus\all_stim\occlusion\partialviewing\manysmall\low\manysmall_partialViewing_low_bird5.png,mask_img/000000055942.png,experiment,u,i,464.8943919999874
V3,21,21,Female,Right,88,Block 1,0.6815411999996286,0.025,true,firehydrant,firehydrant,occlusion,low,mask,partial viewing,few large,Stimulus\all_stim\occlusion\partialviewing\fewlarge\low\fewlarge_partialViewing_low_firehydrant8.png,mask_img/000000028988.png,experiment,q,q,466.7102826999908
V3,21,21,Female,Right,89,Block 1,1.0326882999797817,0.1,false,cat,tree,occlusion,high,mask,partial viewing,many small,Stimulus\all_stim\occlusion\partialviewing\manysmall\high\manysmall_partialViewing_high_cat10.png,mask_img/000000048929.png,experiment,o,e,468.59039619998657
V3,21,21,Female,Right,90,Block 1,0.8410359999979846,0.05,false,bird,banana,occlusion,high,mask,partial viewing,few large,Stimulus\all_stim\occlusion\partialviewing\fewlarge\high\fewlarge_partialViewing_high_bird3.png,mask_img/000000013455.png,experiment,p,i,470.1742492999765
V3,21,21,Female,Right,91,Block 1,1.0595873999991454,0.1,false,bird,building,occlusion,low,mask,partial viewing,many small,Stimulus\all_stim\occlusion\partialviewing\manysmall\low\manysmall_partialViewing_low_bird7.png,mask_img/000000056036.png,experiment,w,i,472.2462867999857
V3,21,21,Female,Right,92,Block 1,0.7855035000247881,0.025,false,bus,building,occlusion,high,mask,partial viewing,few large,Stimulus\all_stim\occlusion\partialviewing\fewlarge\high\fewlarge_partialViewing_high_bus8.png,mask_img/000000016715.png,experiment,w,u,473.7582779999939
V3,21,21,Female,Right,93,Block 1,0.8262397999933455,0.025,true,firehydrant,firehydrant,occlusion,high,mask,partial viewing,few large,Stimulus\all_stim\occlusion\partialviewing\fewlarge\high\fewlarge_partialViewing_high_firehydrant1.png,mask_img/000000017944.png,experiment,q,q,475.5903163999901
V3,21,21,Female,Right,94,Block 1,0.8301611999922898,0.05,true,building,building,occlusion,low,mask,partial viewing,many small,Stimulus\all_stim\occlusion\partialviewing\manysmall\low\manysmall_partialViewing_low_building4.png,mask_img/000000057782.png,experiment,w,w,477.4383304999792
V3,21,21,Female,Right,95,Block 1,2.08433270000387,0.1,true,building,building,occlusion,control,mask,partial viewing,few large,Stimulus\all_stim\occlusion\partialviewing\fewlarge\control\fewlarge_partialViewing_control_building2.png,mask_img/000000003483.png,experiment,w,w,480.3023002999835
V3,21,21,Female,Right,96,Block 1,0.6371131999767385,0.05,true,building,building,occlusion,low,mask,partial viewing,few large,Stimulus\all_stim\occlusion\partialviewing\fewlarge\low\fewlarge_partialViewing_low_building1.png,mask_img/000000024552.png,experiment,w,w,481.8304395999876
V3,21,21,Female,Right,97,Block 1,0.6769939000078011,0.05,true,banana,banana,occlusion,control,mask,partial viewing,few large,Stimulus\all_stim\occlusion\partialviewing\fewlarge\control\fewlarge_partialViewing_control_banana2.png,mask_img/000000000312.png,experiment,p,p,483.2862927999813
V3,21,21,Female,Right,98,Block 1,1.3006182000099216,0.1,true,banana,banana,occlusion,control,mask,partial viewing,few large,Stimulus\all_stim\occlusion\partialviewing\fewlarge\control\fewlarge_partialViewing_control_banana7.png,mask_img/000000000626.png,experiment,p,p,485.478592999978
V3,21,21,Female,Right,99,Block 1,0.7855972000106703,0.05,true,firehydrant,firehydrant,occlusion,high,mask,partial viewing,many small,Stimulus\all_stim\occlusion\partialviewing\manysmall\high\manysmall_partialViewing_high_firehydrant5.png,mask_img/000000050496.png,experiment,q,q,487.18240629998036
V3,21,21,Female,Right,100,Block 1,0.8842185999965295,0.1,true,person,person,occlusion,control,mask,partial viewing,few large,Stimulus\all_stim\occlusion\partialviewing\fewlarge\control\fewlarge_partialViewing_control_person9.png,mask_img/000000009809.png,experiment,r,r,489.0783937999804
V3,21,21,Female,Right,101,Block 1,1.7970558000088204,0.025,false,cat,building,occlusion,low,mask,partial viewing,few large,Stimulus\all_stim\occlusion\partialviewing\fewlarge\low\fewlarge_partialViewing_low_cat9.png,mask_img/000000028231.png,experiment,w,e,491.6141438999912
V3,21,21,Female,Right,102,Block 1,0.8810595000104513,0.05,true,banana,banana,occlusion,control,mask,partial viewing,many small,Stimulus\all_stim\occlusion\partialviewing\manysmall\control\manysmall_partialViewing_control_banana8.png,mask_img/000000033904.png,experiment,p,p,493.35866209998494
V3,21,21,Female,Right,103,Block 1,0.8449794000189286,0.025,false,firehydrant,tree,occlusion,low,mask,partial viewing,many small,Stimulus\all_stim\occlusion\partialviewing\manysmall\low\manysmall_partialViewing_low_firehydrant1.png,mask_img/000000060464.png,experiment,o,q,494.9183645999874
V3,21,21,Female,Right,104,Block 1,0.8997386999835726,0.1,true,banana,banana,occlusion,low,mask,partial viewing,few large,Stimulus\all_stim\occlusion\partialviewing\fewlarge\low\fewlarge_partialViewing_low_banana1.png,mask_img/000000022545.png,experiment,p,p,496.7664267999935
V3,21,21,Female,Right,105,Block 1,0.8704562000057194,0.1,true,bird,bird,occlusion,high,mask,partial viewing,few large,Stimulus\all_stim\occlusion\partialviewing\fewlarge\high\fewlarge_partialViewing_high_bird8.png,mask_img/000000014168.png,experiment,i,i,498.53449019999243
V3,21,21,Female,Right,106,Block 1,0.750119000003906,0.1,true,firehydrant,firehydrant,occlusion,low,mask,partial viewing,few large,Stimulus\all_stim\occlusion\partialviewing\fewlarge\low\fewlarge_partialViewing_low_firehydrant3.png,mask_img/000000028518.png,experiment,q,q,500.3504729999986
V3,21,21,Female,Right,107,Block 1,0.8288152999884915,0.05,true,building,building,occlusion,high,mask,partial viewing,few large,Stimulus\all_stim\occlusion\partialviewing\fewlarge\high\fewlarge_partialViewing_high_building8.png,mask_img/000000015366.png,experiment,w,w,502.1029414999939
V3,21,21,Female,Right,108,Block 1,0.8387252000102308,0.05,true,bird,bird,occlusion,control,mask,partial viewing,few large,Stimulus\all_stim\occlusion\partialviewing\fewlarge\control\fewlarge_partialViewing_control_bird3.png,mask_img/000000001810.png,experiment,i,i,503.878292599984
V3,21,21,Female,Right,109,Block 1,0.7809275000181515,0.025,false,person,bird,occlusion,high,mask,partial viewing,many small,Stimulus\all_stim\occlusion\partialviewing\manysmall\high\manysmall_partialViewing_high_person2.png,mask_img/000000051461.png,experiment,i,r,505.7105610999861
V3,21,21,Female,Right,110,Block 1,0.8208572999865282,0.1,true,building,building,occlusion,low,mask,partial viewing,few large,Stimulus\all_stim\occlusion\partialviewing\fewlarge\low\fewlarge_partialViewing_low_building10.png,mask_img/000000024591.png,experiment,w,w,507.38238809999893
V3,21,21,Female,Right,111,Block 1,0.837228700023843,0.05,true,banana,banana,occlusion,high,mask,partial viewing,few large,Stimulus\all_stim\occlusion\partialviewing\fewlarge\high\fewlarge_partialViewing_high_banana2.png,mask_img/000000012179.png,experiment,p,p,508.91023299997323
V3,21,21,Female,Right,112,Block 1,0.9233634000120219,0.05,false,cat,tree,occlusion,low,mask,partial viewing,few large,Stimulus\all_stim\occlusion\partialviewing\fewlarge\low\fewlarge_partialViewing_low_cat3.png,mask_img/000000027556.png,experiment,o,e,510.606481099996
V3,21,21,Female,Right,113,Block 1,0.9222214000183158,0.1,true,firehydrant,firehydrant,occlusion,high,mask,partial viewing,many small,Stimulus\all_stim\occlusion\partialviewing\manysmall\high\manysmall_partialViewing_high_firehydrant6.png,mask_img/000000050782.png,experiment,q,q,512.6549611999944
V3,21,21,Female,Right,114,Block 1,0.8066387999861035,0.025,true,firehydrant,firehydrant,occlusion,control,mask,partial viewing,few large,Stimulus\all_stim\occlusion\partialviewing\fewlarge\control\fewlarge_partialViewing_control_firehydrant9.png,mask_img/000000008329.png,experiment,q,q,514.2944533999835
V3,21,21,Female,Right,115,Block 1,1.1548548999999184,0.1,true,cat,cat,occlusion,control,mask,partial viewing,few large,Stimulus\all_stim\occlusion\partialviewing\fewlarge\control\fewlarge_partialViewing_control_cat4.png,mask_img/000000006842.png,experiment,e,e,516.6064117999922
V3,21,21,Female,Right,116,Block 1,1.4826476000016555,0.025,false,person,bird,occlusion,high,mask,partial viewing,few large,Stimulus\all_stim\occlusion\partialviewing\fewlarge\high\fewlarge_partialViewing_high_person4.png,mask_img/000000020202.png,experiment,i,r,518.9264081000001
V3,21,21,Female,Right,117,Block 1,0.5800298000103794,0.025,true,firehydrant,firehydrant,occlusion,control,mask,partial viewing,many small,Stimulus\all_stim\occlusion\partialviewing\manysmall\control\manysmall_partialViewing_control_firehydrant8.png,mask_img/000000039553.png,experiment,q,q,520.6563681999978
V3,21,21,Female,Right,118,Block 1,1.405213999998523,0.025,false,bus,building,occlusion,low,mask,partial viewing,many small,Stimulus\all_stim\occlusion\partialviewing\manysmall\low\manysmall_partialViewing_low_bus7.png,mask_img/000000058822.png,experiment,w,u,523.0148512999876
V3,21,21,Female,Right,119,Block 1,2.462270100018941,0.1,false,building,bus,occlusion,high,mask,partial viewing,many small,Stimulus\all_stim\occlusion\partialviewing\manysmall\high\manysmall_partialViewing_high_building5.png,mask_img/000000046029.png,experiment,u,w,526.4145990999823
V3,21,21,Female,Right,120,Block 1,0.851737500022864,0.05,false,cat,building,occlusion,low,mask,partial viewing,many small,Stimulus\all_stim\occlusion\partialviewing\manysmall\low\manysmall_partialViewing_low_cat5.png,mask_img/000000059660.png,experiment,w,e,528.4304027999751
V3,21,21,Female,Right,121,Block 1,0.7871290000039153,0.1,false,bird,tree,occlusion,high,mask,partial viewing,many small,Stimulus\all_stim\occlusion\partialviewing\manysmall\high\manysmall_partialViewing_high_bird2.png,mask_img/000000044117.png,experiment,o,i,530.0224500999902
V3,21,21,Female,Right,122,Block 1,1.6466415000031702,0.025,true,building,building,occlusion,control,mask,partial viewing,few large,Stimulus\all_stim\occlusion\partialviewing\fewlarge\control\fewlarge_partialViewing_control_building7.png,mask_img/000000004936.png,experiment,w,w,532.6626010999898
V3,21,21,Female,Right,123,Block 1,1.0087297999998555,0.025,false,person,cat,occlusion,high,mask,partial viewing,many small,Stimulus\all_stim\occlusion\partialviewing\manysmall\high\manysmall_partialViewing_high_person9.png,mask_img/000000052619.png,experiment,e,r,534.726445599983
V3,21,21,Female,Right,124,Block 1,0.7202627999940887,0.025,true,banana,banana,occlusion,high,mask,partial viewing,few large,Stimulus\all_stim\occlusion\partialviewing\fewlarge\high\fewlarge_partialViewing_high_banana10.png,mask_img/000000012178.png,experiment,p,p,536.5343769999745
V3,21,21,Female,Right,125,Block 1,1.2751554000133183,0.1,true,bird,bird,occlusion,low,mask,partial viewing,few large,Stimulus\all_stim\occlusion\partialviewing\fewlarge\low\fewlarge_partialViewing_low_bird2.png,mask_img/000000024125.png,experiment,i,i,538.52654359999
V3,21,21,Female,Right,126,Block 1,0.8838733999873511,0.1,true,person,person,occlusion,high,mask,partial viewing,few large,Stimulus\all_stim\occlusion\partialviewing\fewlarge\high\fewlarge_partialViewing_high_person9.png,mask_img/000000021003.png,experiment,r,r,540.1823924999917
V3,21,21,Female,Right,127,Block 1,1.1610142000135966,0.1,true,bus,bus,occlusion,high,mask,partial viewing,many small,Stimulus\all_stim\occlusion\partialviewing\manysmall\high\manysmall_partialViewing_high_bus4.png,mask_img/000000047316.png,experiment,u,u,542.3184551000013
V3,21,21,Female,Right,128,Block 1,1.1590703999972902,0.05,true,bird,bird,occlusion,control,mask,partial viewing,many small,Stimulus\all_stim\occlusion\partialviewing\manysmall\control\manysmall_partialViewing_control_bird2.png,mask_img/000000034455.png,experiment,i,i,544.3272158999753
V3,21,21,Female,Right,129,Block 1,0.7410661999892909,0.025,true,firehydrant,firehydrant,occlusion,control,mask,partial viewing,few large,Stimulus\all_stim\occlusion\partialviewing\fewlarge\control\fewlarge_partialViewing_control_firehydrant7.png,mask_img/000000008053.png,experiment,q,q,546.2465207999921
V3,21,21,Female,Right,130,Block 1,0.7591814000043087,0.025,true,building,building,occlusion,control,mask,partial viewing,few large,Stimulus\all_stim\occlusion\partialviewing\fewlarge\control\fewlarge_partialViewing_control_building2.png,mask_img/000000003483.png,experiment,w,w,548.0624703999783
V3,21,21,Female,Right,131,Block 1,0.5798150000046007,0.05,true,cat,cat,occlusion,low,mask,partial viewing,many small,Stimulus\all_stim\occlusion\partialviewing\manysmall\low\manysmall_partialViewing_low_cat4.png,mask_img/000000059483.png,experiment,e,e,549.5202263999963
V3,21,21,Female,Right,132,Block 1,0.9150945000001229,0.1,true,tree,tree,occlusion,control,mask,partial viewing,few large,Stimulus\all_stim\occlusion\partialviewing\fewlarge\control\fewlarge_partialViewing_control_tree2.png,mask_img/000000010560.png,experiment,o,o,551.3585228000011
V3,21,21,Female,Right,133,Block 1,1.123744299984537,0.1,true,bird,bird,occlusion,control,mask,partial viewing,many small,Stimulus\all_stim\occlusion\partialviewing\manysmall\control\manysmall_partialViewing_control_bird8.png,mask_img/000000035190.png,experiment,i,i,553.4627204999852
V3,21,21,Female,Right,134,Block 1,1.4591755000001285,0.05,false,person,cat,occlusion,low,mask,partial viewing,few large,Stimulus\all_stim\occlusion\partialviewing\fewlarge\low\fewlarge_partialViewing_low_person7.png,mask_img/000000030526.png,experiment,e,r,555.8547798999934
V3,21,21,Female,Right,135,Block 1,1.284819399996195,0.025,true,tree,tree,occlusion,high,mask,partial viewing,many small,Stimulus\all_stim\occlusion\partialviewing\manysmall\high\manysmall_partialViewing_high_tree9.png,mask_img/000000054336.png,experiment,o,o,557.902496900002
V3,21,21,Female,Right,136,Block 1,1.2939097000053152,0.05,false,bird,bus,occlusion,high,mask,partial viewing,many small,Stimulus\all_stim\occlusion\partialviewing\manysmall\high\manysmall_partialViewing_high_bird10.png,mask_img/000000044065.png,experiment,u,i,560.1745714999852
V3,21,21,Female,Right,137,Block 1,1.3720111000002362,0.1,true,cat,cat,occlusion,high,mask,partial viewing,few large,Stimulus\all_stim\occlusion\partialviewing\fewlarge\high\fewlarge_partialViewing_high_cat5.png,mask_img/000000017409.png,experiment,e,e,562.4545131999766
V3,21,21,Female,Right,138,Block 1,1.017544900008943,0.1,false,banana,cat,occlusion,high,mask,partial viewing,many small,Stimulus\all_stim\occlusion\partialviewing\manysmall\high\manysmall_partialViewing_high_banana4.png,mask_img/000000042499.png,experiment,e,p,564.1985524999909
V3,21,21,Female,Right,139,Block 1,1.504849799996009,0.05,false,firehydrant,cat,occlusion,high,mask,partial viewing,few large,Stimulus\all_stim\occlusion\partialviewing\fewlarge\high\fewlarge_partialViewing_high_firehydrant1.png,mask_img/000000017944.png,experiment,e,q,566.8544360999949
V3,21,21,Female,Right,140,Block 1,0.9833382999931928,0.1,true,bus,bus,occlusion,control,mask,partial viewing,many small,Stimulus\all_stim\occlusion\partialviewing\manysmall\control\manysmall_partialViewing_control_bus1.png,mask_img/000000036255.png,experiment,u,u,568.9747071999882
V3,21,21,Female,Right,141,Block 1,0.9905830000061542,0.05,true,building,building,occlusion,high,mask,partial viewing,few large,Stimulus\all_stim\occlusion\partialviewing\fewlarge\high\fewlarge_partialViewing_high_building5.png,mask_img/000000014759.png,experiment,w,w,570.9186471999856
V3,21,21,Female,Right,142,Block 1,1.002420600008918,0.025,true,tree,tree,occlusion,control,mask,partial viewing,few large,Stimulus\all_stim\occlusion\partialviewing\fewlarge\control\fewlarge_partialViewing_control_tree5.png,mask_img/000000010991.png,experiment,o,o,572.8386283
V3,21,21,Female,Right,143,Block 1,1.2048385000089183,0.05,true,bird,bird,occlusion,low,mask,partial viewing,few large,Stimulus\all_stim\occlusion\partialviewing\fewlarge\low\fewlarge_partialViewing_low_bird6.png,mask_img/000000024247.png,experiment,i,i,574.9664302999736
V3,21,21,Female,Right,144,Block 1,0.9334232999826781,0.05,true,person,person,occlusion,control,mask,partial viewing,few large,Stimulus\all_stim\occlusion\partialviewing\fewlarge\control\fewlarge_partialViewing_control_person6.png,mask_img/000000009469.png,experiment,r,r,604.3589077999932
V3,21,21,Female,Right,145,Block 2,0.9656604999909177,0.05,true,cat,cat,occlusion,high,mask,partial viewing,few large,Stimulus\all_stim\occlusion\partialviewing\fewlarge\high\fewlarge_partialViewing_high_cat6.png,mask_img/000000017476.png,experiment,e,e,606.0309335999773
V3,21,21,Female,Right,146,Block 2,0.8413835999963339,0.1,true,banana,banana,occlusion,low,mask,partial viewing,many small,Stimulus\all_stim\occlusion\partialviewing\manysmall\low\manysmall_partialViewing_low_banana7.png,mask_img/000000055594.png,experiment,p,p,607.9827906999853
V3,21,21,Female,Right,147,Block 2,1.5176818000036292,0.025,false,building,bus,occlusion,high,mask,partial viewing,many small,Stimulus\all_stim\occlusion\partialviewing\manysmall\high\manysmall_partialViewing_high_building4.png,mask_img/000000046025.png,experiment,u,w,610.4868384999863
V3,21,21,Female,Right,148,Block 2,0.9263073000183795,0.05,true,banana,banana,occlusion,high,mask,partial viewing,many small,Stimulus\all_stim\occlusion\partialviewing\manysmall\high\manysmall_partialViewing_high_banana2.png,mask_img/000000042408.png,experiment,p,p,612.142514599982
V3,21,21,Female,Right,149,Block 2,0.7306050999904983,0.025,true,banana,banana,occlusion,control,mask,partial viewing,many small,Stimulus\all_stim\occlusion\partialviewing\manysmall\control\manysmall_partialViewing_control_banana1.png,mask_img/000000033073.png,experiment,p,p,613.9025853999774
V3,21,21,Female,Right,150,Block 2,1.1960211000114214,0.1,true,bird,bird,occlusion,low,mask,partial viewing,many small,Stimulus\all_stim\occlusion\partialviewing\manysmall\low\manysmall_partialViewing_low_bird3.png,mask_img/000000055849.png,experiment,i,i,616.0710569999937
V3,21,21,Female,Right,151,Block 2,0.7602208000025712,0.025,true,bird,bird,occlusion,low,mask,partial viewing,many small,Stimulus\all_stim\occlusion\partialviewing\manysmall\low\manysmall_partialViewing_low_bird7.png,mask_img/000000056036.png,experiment,i,i,617.8547259999905
V3,21,21,Female,Right,152,Block 2,0.8488928999868222,0.05,true,bus,bus,occlusion,control,mask,partial viewing,few large,Stimulus\all_stim\occlusion\partialviewing\fewlarge\control\fewlarge_partialViewing_control_bus4.png,mask_img/000000005574.png,experiment,u,u,619.5106178999995
V3,21,21,Female,Right,153,Block 2,1.481910100003006,0.1,true,bird,bird,occlusion,low,mask,partial viewing,many small,Stimulus\all_stim\occlusion\partialviewing\manysmall\low\manysmall_partialViewing_low_bird1.png,mask_img/000000055694.png,experiment,i,i,621.9986071999883
V3,21,21,Female,Right,154,Block 2,1.673271100007696,0.05,true,cat,cat,occlusion,low,mask,partial viewing,many small,Stimulus\all_stim\occlusion\partialviewing\manysmall\low\manysmall_partialViewing_low_cat3.png,mask_img/000000059442.png,experiment,e,e,624.7677307999984
V3,21,21,Female,Right,155,Block 2,0.9592988999793306,0.1,false,person,bird,occlusion,high,mask,partial viewing,many small,Stimulus\all_stim\occlusion\partialviewing\manysmall\high\manysmall_partialViewing_high_person7.png,mask_img/000000052562.png,experiment,i,r,626.6948600999895
V3,21,21,Female,Right,156,Block 2,0.8410118000174407,0.025,true,firehydrant,firehydrant,occlusion,low,mask,partial viewing,few large,Stimulus\all_stim\occlusion\partialviewing\fewlarge\low\fewlarge_partialViewing_low_firehydrant2.png,mask_img/000000028517.png,experiment,q,q,628.2627903999819
V3,21,21,Female,Right,157,Block 2,0.8243203000165522,0.05,true,tree,tree,occlusion,control,mask,partial viewing,many small,Stimulus\all_stim\occlusion\partialviewing\manysmall\control\manysmall_partialViewing_control_tree2.png,mask_img/000000041008.png,experiment,o,o,629.7668467999902
V3,21,21,Female,Right,158,Block 2,0.7033309999969788,0.05,true,person,person,occlusion,control,mask,partial viewing,many small,Stimulus\all_stim\occlusion\partialviewing\manysmall\control\manysmall_partialViewing_control_person4.png,mask_img/000000040042.png,experiment,r,r,631.471329699998
V3,21,21,Female,Right,159,Block 2,0.6833476000174414,0.1,true,bus,bus,occlusion,control,mask,partial viewing,many small,Stimulus\all_stim\occlusion\partialviewing\manysmall\control\manysmall_partialViewing_control_bus10.png,mask_img/000000036482.png,experiment,u,u,632.8628074000007
V3,21,21,Female,Right,160,Block 2,0.7168457000225317,0.05,false,tree,bird,occlusion,low,mask,partial viewing,few large,Stimulus\all_stim\occlusion\partialviewing\fewlarge\low\fewlarge_partialViewing_low_tree3.png,mask_img/000000031717.png,experiment,i,o,634.3347932999895
V3,21,21,Female,Right,161,Block 2,1.43334750001668,0.025,false,firehydrant,bird,occlusion,high,mask,partial viewing,many small,Stimulus\all_stim\occlusion\partialviewing\manysmall\high\manysmall_partialViewing_high_firehydrant1.png,mask_img/000000049987.png,experiment,i,q,636.5907571999996
V3,21,21,Female,Right,162,Block 2,1.217594799993094,0.025,true,building,building,occlusion,control,mask,partial viewing,many small,Stimulus\all_stim\occlusion\partialviewing\manysmall\control\manysmall_partialViewing_control_building6.png,mask_img/000000036006.png,experiment,w,w,638.8947606000002
V3,21,21,Female,Right,163,Block 2,1.0274808999965899,0.1,true,bird,bird,occlusion,control,mask,partial viewing,few large,Stimulus\all_stim\occlusion\partialviewing\fewlarge\control\fewlarge_partialViewing_control_bird2.png,mask_img/000000001647.png,experiment,i,i,640.7828351999924
V3,21,21,Female,Right,164,Block 2,0.9156572000065353,0.1,true,tree,tree,occlusion,high,mask,partial viewing,many small,Stimulus\all_stim\occlusion\partialviewing\manysmall\high\manysmall_partialViewing_high_tree3.png,mask_img/000000052936.png,experiment,o,o,642.5909255000006
V3,21,21,Female,Right,165,Block 2,1.112194500019541,0.05,true,bus,bus,occlusion,high,mask,partial viewing,few large,Stimulus\all_stim\occlusion\partialviewing\fewlarge\high\fewlarge_partialViewing_high_bus9.png,mask_img/000000016764.png,experiment,u,u,644.6468584999966
V3,21,21,Female,Right,166,Block 2,0.8673467000189703,0.025,true,tree,tree,occlusion,low,mask,partial viewing,many small,Stimulus\all_stim\occlusion\partialviewing\manysmall\low\manysmall_partialViewing_low_tree2.png,mask_img/000000062875.png,experiment,o,o,646.2469904999889
V3,21,21,Female,Right,167,Block 2,0.9038459000003058,0.025,false,banana,tree,occlusion,low,mask,partial viewing,many small,Stimulus\all_stim\occlusion\partialviewing\manysmall\low\manysmall_partialViewing_low_banana9.png,mask_img/000000055652.png,experiment,o,p,648.0947615999903
V3,21,21,Female,Right,168,Block 2,0.6989498999901116,0.025,true,firehydrant,firehydrant,occlusion,control,mask,partial viewing,few large,Stimulus\all_stim\occlusion\partialviewing\fewlarge\control\fewlarge_partialViewing_control_firehydrant3.png,mask_img/000000007946.png,experiment,q,q,649.6708139999828
V3,21,21,Female,Right,169,Block 2,0.7428619000129402,0.025,true,tree,tree,occlusion,high,mask,partial viewing,few large,Stimulus\all_stim\occlusion\partialviewing\fewlarge\high\fewlarge_partialViewing_high_tree5.png,mask_img/000000022102.png,experiment,o,o,651.4948112999846
V3,21,21,Female,Right,170,Block 2,0.8618232999870088,0.025,true,bus,bus,occlusion,high,mask,partial viewing,many small,Stimulus\all_stim\occlusion\partialviewing\manysmall\high\manysmall_partialViewing_high_bus3.png,mask_img/000000047229.png,experiment,u,u,653.0468986999767
V3,21,21,Female,Right,171,Block 2,0.8415146000043023,0.05,false,bird,bus,occlusion,low,mask,partial viewing,many small,Stimulus\all_stim\occlusion\partialviewing\manysmall\low\manysmall_partialViewing_low_bird8.png,mask_img/000000056137.png,experiment,u,i,654.6547982999764
V3,21,21,Female,Right,172,Block 2,0.8105942999827676,0.025,true,bus,bus,occlusion,control,mask,partial viewing,many small,Stimulus\all_stim\occlusion\partialviewing\manysmall\control\manysmall_partialViewing_control_bus4.png,mask_img/000000036966.png,experiment,u,u,656.1670204999973
V3,21,21,Female,Right,173,Block 2,0.7483676999981981,0.025,true,firehydrant,firehydrant,occlusion,low,mask,partial viewing,many small,Stimulus\all_stim\occlusion\partialviewing\manysmall\low\manysmall_partialViewing_low_firehydrant2.png,mask_img/000000060548.png,experiment,q,q,657.8310746999923
V3,21,21,Female,Right,174,Block 2,0.7712669000029564,0.1,true,tree,tree,occlusion,high,mask,partial viewing,few large,Stimulus\all_stim\occlusion\partialviewing\fewlarge\high\fewlarge_partialViewing_high_tree4.png,mask_img/000000021981.png,experiment,o,o,659.3748784999771
V3,21,21,Female,Right,175,Block 2,0.9392914999916684,0.05,true,bird,bird,occlusion,high,mask,partial viewing,few large,Stimulus\all_stim\occlusion\partialviewing\fewlarge\high\fewlarge_partialViewing_high_bird10.png,mask_img/000000013127.png,experiment,i,i,661.3188565000019
V3,21,21,Female,Right,176,Block 2,0.7065047000069171,0.05,true,bus,bus,occlusion,control,mask,partial viewing,few large,Stimulus\all_stim\occlusion\partialviewing\fewlarge\control\fewlarge_partialViewing_control_bus6.png,mask_img/000000005862.png,experiment,u,u,663.0388837999781
V3,21,21,Female,Right,177,Block 2,0.6756926000234671,0.05,true,tree,tree,occlusion,high,mask,partial viewing,many small,Stimulus\all_stim\occlusion\partialviewing\manysmall\high\manysmall_partialViewing_high_tree9.png,mask_img/000000054336.png,experiment,o,o,664.7260778999771
V3,21,21,Female,Right,178,Block 2,0.7583015999989584,0.1,true,building,building,occlusion,high,mask,partial viewing,few large,Stimulus\all_stim\occlusion\partialviewing\fewlarge\high\fewlarge_partialViewing_high_building3.png,mask_img/000000014567.png,experiment,w,w,666.1989401999745
V3,21,21,Female,Right,179,Block 2,0.7279692000010982,0.1,true,tree,tree,occlusion,control,mask,partial viewing,few large,Stimulus\all_stim\occlusion\partialviewing\fewlarge\control\fewlarge_partialViewing_control_tree3.png,mask_img/000000010566.png,experiment,o,o,667.8869723999815
V3,21,21,Female,Right,180,Block 2,0.8229444999888074,0.025,false,bird,tree,occlusion,low,mask,partial viewing,few large,Stimulus\all_stim\occlusion\partialviewing\fewlarge\low\fewlarge_partialViewing_low_bird1.png,mask_img/000000023984.png,experiment,o,i,669.3911385999818
V3,21,21,Female,Right,181,Block 2,0.6783212999871466,0.1,true,tree,tree,occlusion,control,mask,partial viewing,many small,Stimulus\all_stim\occlusion\partialviewing\manysmall\control\manysmall_partialViewing_control_tree5.png,mask_img/000000041174.png,experiment,o,o,671.1305618999759
V3,21,21,Female,Right,182,Block 2,0.6022488000162411,0.025,true,tree,tree,occlusion,control,mask,partial viewing,many small,Stimulus\all_stim\occlusion\partialviewing\manysmall\control\manysmall_partialViewing_control_tree4.png,mask_img/000000041022.png,experiment,o,o,672.6711568999744
V3,21,21,Female,Right,183,Block 2,1.6111556999967434,0.1,false,bus,building,occlusion,low,mask,partial viewing,many small,Stimulus\all_stim\occlusion\partialviewing\manysmall\low\manysmall_partialViewing_low_bus8.png,mask_img/000000058873.png,experiment,w,u,675.0792934999918
V3,21,21,Female,Right,184,Block 2,0.7952154999948107,0.1,true,banana,banana,occlusion,control,mask,partial viewing,few large,Stimulus\all_stim\occlusion\partialviewing\fewlarge\control\fewlarge_partialViewing_control_banana3.png,mask_img/000000000394.png,experiment,p,p,676.9109452999837
V3,21,21,Female,Right,185,Block 2,0.7758925000089221,0.1,true,firehydrant,firehydrant,occlusion,low,mask,partial viewing,many small,Stimulus\all_stim\occlusion\partialviewing\manysmall\low\manysmall_partialViewing_low_firehydrant5.png,mask_img/000000060623.png,experiment,q,q,678.3588433999976
V3,21,21,Female,Right,186,Block 2,1.162311200023396,0.025,true,person,person,occlusion,high,mask,partial viewing,many small,Stimulus\all_stim\occlusion\partialviewing\manysmall\high\manysmall_partialViewing_high_person4.png,mask_img/000000052087.png,experiment,r,r,680.3589649999922
V3,21,21,Female,Right,187,Block 2,0.7494621000078041,0.025,true,building,building,occlusion,control,mask,partial viewing,few large,Stimulus\all_stim\occlusion\partialviewing\fewlarge\control\fewlarge_partialViewing_control_building9.png,mask_img/000000005131.png,experiment,w,w,682.0551278999774
V3,21,21,Female,Right,188,Block 2,0.6246017999947071,0.1,true,bus,bus,occlusion,control,mask,partial viewing,few large,Stimulus\all_stim\occlusion\partialviewing\fewlarge\control\fewlarge_partialViewing_control_bus3.png,mask_img/000000005418.png,experiment,u,u,683.4533471999748
V3,21,21,Female,Right,189,Block 2,1.1706040000135545,0.1,true,firehydrant,firehydrant,occlusion,high,mask,partial viewing,many small,Stimulus\all_stim\occlusion\partialviewing\manysmall\high\manysmall_partialViewing_high_firehydrant10.png,mask_img/000000050148.png,experiment,q,q,685.4709782999998
V3,21,21,Female,Right,190,Block 2,1.1150767000217456,0.025,false,bird,tree,occlusion,low,mask,partial viewing,few large,Stimulus\all_stim\occlusion\partialviewing\fewlarge\low\fewlarge_partialViewing_low_bird6.png,mask_img/000000024247.png,experiment,o,i,687.5909469999897
V3,21,21,Female,Right,191,Block 2,0.7273107999935746,0.1,true,person,person,occlusion,control,mask,partial viewing,many small,Stimulus\all_stim\occlusion\partialviewing\manysmall\control\manysmall_partialViewing_control_person5.png,mask_img/000000040275.png,experiment,r,r,689.1591196999943
V3,21,21,Female,Right,192,Block 2,0.7479831999808084,0.1,true,banana,banana,occlusion,high,mask,partial viewing,few large,Stimulus\all_stim\occlusion\partialviewing\fewlarge\high\fewlarge_partialViewing_high_banana5.png,mask_img/000000012543.png,experiment,p,p,690.9109416999854
V3,21,21,Female,Right,193,Block 2,0.5471624000056181,0.025,true,bird,bird,occlusion,control,mask,partial viewing,many small,Stimulus\all_stim\occlusion\partialviewing\manysmall\control\manysmall_partialViewing_control_bird1.png,mask_img/000000034113.png,experiment,i,i,692.3243569999759
V3,21,21,Female,Right,194,Block 2,0.8475246999878436,0.1,false,cat,building,occlusion,control,mask,partial viewing,many small,Stimulus\all_stim\occlusion\partialviewing\manysmall\control\manysmall_partialViewing_control_cat4.png,mask_img/000000038479.png,experiment,w,e,693.8709045999858
V3,21,21,Female,Right,195,Block 2,0.7833750999998301,0.05,true,building,building,occlusion,high,mask,partial viewing,many small,Stimulus\all_stim\occlusion\partialviewing\manysmall\high\manysmall_partialViewing_high_building3.png,mask_img/000000045655.png,experiment,w,w,695.6150145999854
V3,21,21,Female,Right,196,Block 2,1.7179265999875497,0.1,false,building,cat,occlusion,control,mask,partial viewing,few large,Stimulus\all_stim\occlusion\partialviewing\fewlarge\control\fewlarge_partialViewing_control_building1.png,mask_img/000000003084.png,experiment,e,w,698.1351480000012
V3,21,21,Female,Right,197,Block 2,0.7869658000126947,0.1,true,cat,cat,occlusion,high,mask,partial viewing,many small,Stimulus\all_stim\occlusion\partialviewing\manysmall\high\manysmall_partialViewing_high_cat1.png,mask_img/000000048664.png,experiment,e,e,699.8553102999867
V3,21,21,Female,Right,198,Block 2,0.6880855000053998,0.05,true,building,building,occlusion,low,mask,partial viewing,many small,Stimulus\all_stim\occlusion\partialviewing\manysmall\low\manysmall_partialViewing_low_building10.png,mask_img/000000057068.png,experiment,w,w,701.4073909999861
V3,21,21,Female,Right,199,Block 2,0.9354839000152424,0.025,false,firehydrant,building,occlusion,high,mask,partial viewing,many small,Stimulus\all_stim\occlusion\partialviewing\manysmall\high\manysmall_partialViewing_high_firehydrant6.png,mask_img/000000050782.png,experiment,w,q,703.0713715999736
V3,21,21,Female,Right,200,Block 2,0.924533400015207,0.05,false,banana,bird,occlusion,high,mask,partial viewing,many small,Stimulus\all_stim\occlusion\partialviewing\manysmall\high\manysmall_partialViewing_high_banana7.png,mask_img/000000043024.png,experiment,i,p,705.0390489999845
V3,21,21,Female,Right,201,Block 2,0.6773850999888964,0.025,true,building,building,occlusion,high,mask,partial viewing,few large,Stimulus\all_stim\occlusion\partialviewing\fewlarge\high\fewlarge_partialViewing_high_building7.png,mask_img/000000015155.png,experiment,w,w,706.830339099979
V3,21,21,Female,Right,202,Block 2,2.0021854999940842,0.1,true,bus,bus,occlusion,control,mask,partial viewing,many small,Stimulus\all_stim\occlusion\partialviewing\manysmall\control\manysmall_partialViewing_control_bus2.png,mask_img/000000036622.png,experiment,u,u,709.7436835999833
V3,21,21,Female,Right,203,Block 2,0.7503808999899775,0.025,true,firehydrant,firehydrant,occlusion,low,mask,partial viewing,few large,Stimulus\all_stim\occlusion\partialviewing\fewlarge\low\fewlarge_partialViewing_low_firehydrant4.png,mask_img/000000028671.png,experiment,q,q,711.5829569999769
V3,21,21,Female,Right,204,Block 2,0.868733399984194,0.025,true,cat,cat,occlusion,control,mask,partial viewing,few large,Stimulus\all_stim\occlusion\partialviewing\fewlarge\control\fewlarge_partialViewing_control_cat9.png,mask_img/000000007558.png,experiment,e,e,713.1190924999828
V3,21,21,Female,Right,205,Block 2,0.725405100005446,0.05,true,tree,tree,occlusion,control,mask,partial viewing,few large,Stimulus\all_stim\occlusion\partialviewing\fewlarge\control\fewlarge_partialViewing_control_tree7.png,mask_img/000000011504.png,experiment,o,o,714.8871065999847
V3,21,21,Female,Right,206,Block 2,0.6314580000180285,0.025,true,banana,banana,occlusion,control,mask,partial viewing,many small,Stimulus\all_stim\occlusion\partialviewing\manysmall\control\manysmall_partialViewing_control_banana2.png,mask_img/000000033126.png,experiment,p,p,716.6714233999955
V3,21,21,Female,Right,207,Block 2,1.2583401999727357,0.1,true,cat,cat,occlusion,control,mask,partial viewing,many small,Stimulus\all_stim\occlusion\partialviewing\manysmall\control\manysmall_partialViewing_control_cat2.png,mask_img/000000038375.png,experiment,e,e,718.7596150999889
V3,21,21,Female,Right,208,Block 2,0.836531200009631,0.1,true,bus,bus,occlusion,high,mask,partial viewing,many small,Stimulus\all_stim\occlusion\partialviewing\manysmall\high\manysmall_partialViewing_high_bus8.png,mask_img/000000048169.png,experiment,u,u,720.6230898999784
V3,21,21,Female,Right,209,Block 2,0.629964599997038,0.1,true,person,person,occlusion,control,mask,partial viewing,many small,Stimulus\all_stim\occlusion\partialviewing\manysmall\control\manysmall_partialViewing_control_person9.png,mask_img/000000040771.png,experiment,r,r,722.039111799997
V3,21,21,Female,Right,210,Block 2,0.777704599982826,0.05,true,building,building,occlusion,control,mask,partial viewing,many small,Stimulus\all_stim\occlusion\partialviewing\manysmall\control\manysmall_partialViewing_control_building5.png,mask_img/000000036004.png,experiment,w,w,723.5191194999788
V3,21,21,Female,Right,211,Block 2,0.9420042000128888,0.1,false,person,firehydrant,occlusion,high,mask,partial viewing,many small,Stimulus\all_stim\occlusion\partialviewing\manysmall\high\manysmall_partialViewing_high_person4.png,mask_img/000000052087.png,experiment,q,r,725.4790767999948
V3,21,21,Female,Right,212,Block 2,1.0136551999894436,0.05,true,cat,cat,occlusion,high,mask,partial viewing,few large,Stimulus\all_stim\occlusion\partialviewing\fewlarge\high\fewlarge_partialViewing_high_cat5.png,mask_img/000000017409.png,experiment,e,e,727.5191297999991
V3,21,21,Female,Right,213,Block 2,0.8568771000136621,0.05,false,bird,tree,occlusion,control,mask,partial viewing,few large,Stimulus\all_stim\occlusion\partialviewing\fewlarge\control\fewlarge_partialViewing_control_bird7.png,mask_img/000000002774.png,experiment,o,i,729.0712585999863
V3,21,21,Female,Right,214,Block 2,0.7801478000183124,0.1,true,tree,tree,occlusion,low,mask,partial viewing,many small,Stimulus\all_stim\occlusion\partialviewing\manysmall\low\manysmall_partialViewing_low_tree1.png,mask_img/000000062690.png,experiment,o,o,730.7991295999964
V3,21,21,Female,Right,215,Block 2,0.7429272000154015,0.1,true,firehydrant,firehydrant,occlusion,high,mask,partial viewing,many small,Stimulus\all_stim\occlusion\partialviewing\manysmall\high\manysmall_partialViewing_high_firehydrant4.png,mask_img/000000050412.png,experiment,q,q,732.5110569999961
V3,21,21,Female,Right,216,Block 2,1.0148434999864548,0.05,true,cat,cat,occlusion,control,mask,partial viewing,few large,Stimulus\all_stim\occlusion\partialviewing\fewlarge\control\fewlarge_partialViewing_control_cat10.png,mask_img/000000006481.png,experiment,e,e,734.5191922999802
V3,21,21,Female,Right,217,Block 2,0.6481154999928549,0.05,true,bus,bus,occlusion,control,mask,partial viewing,many small,Stimulus\all_stim\occlusion\partialviewing\manysmall\control\manysmall_partialViewing_control_bus5.png,mask_img/000000037140.png,experiment,u,u,735.8632183999871
V3,21,21,Female,Right,218,Block 2,1.1556345999997575,0.05,true,cat,cat,occlusion,high,mask,partial viewing,many small,Stimulus\all_stim\occlusion\partialviewing\manysmall\high\manysmall_partialViewing_high_cat4.png,mask_img/000000049331.png,experiment,e,e,737.8391744999972
V3,21,21,Female,Right,219,Block 2,0.7679132999910507,0.025,true,bus,bus,occlusion,high,mask,partial viewing,few large,Stimulus\all_stim\occlusion\partialviewing\fewlarge\high\fewlarge_partialViewing_high_bus1.png,mask_img/000000015645.png,experiment,u,u,739.3592766999791
V3,21,21,Female,Right,220,Block 2,0.815239699993981,0.025,true,person,person,occlusion,high,mask,partial viewing,few large,Stimulus\all_stim\occlusion\partialviewing\fewlarge\high\fewlarge_partialViewing_high_person6.png,mask_img/000000020392.png,experiment,r,r,740.9197147999948
V3,21,21,Female,Right,221,Block 2,0.8045485000184271,0.05,true,building,building,occlusion,high,mask,partial viewing,many small,Stimulus\all_stim\occlusion\partialviewing\manysmall\high\manysmall_partialViewing_high_building1.png,mask_img/000000044950.png,experiment,w,w,742.431216899975
V3,21,21,Female,Right,222,Block 2,1.509322300000349,0.05,false,firehydrant,cat,occlusion,high,mask,partial viewing,many small,Stimulus\all_stim\occlusion\partialviewing\manysmall\high\manysmall_partialViewing_high_firehydrant9.png,mask_img/000000051164.png,experiment,e,q,744.9352155999804
V3,21,21,Female,Right,223,Block 2,0.9946274999820162,0.025,false,firehydrant,cat,occlusion,high,mask,partial viewing,many small,Stimulus\all_stim\occlusion\partialviewing\manysmall\high\manysmall_partialViewing_high_firehydrant10.png,mask_img/000000050148.png,experiment,e,q,747.047915299976
V3,21,21,Female,Right,224,Block 2,0.7198105999850668,0.025,true,banana,banana,occlusion,control,mask,partial viewing,few large,Stimulus\all_stim\occlusion\partialviewing\fewlarge\control\fewlarge_partialViewing_control_banana8.png,mask_img/000000000690.png,experiment,p,p,748.5351133999939
V3,21,21,Female,Right,225,Block 2,0.9307687999971677,0.05,true,bird,bird,occlusion,control,mask,partial viewing,many small,Stimulus\all_stim\occlusion\partialviewing\manysmall\control\manysmall_partialViewing_control_bird8.png,mask_img/000000035190.png,experiment,i,i,750.2234076999885
V3,21,21,Female,Right,226,Block 2,1.6820953999995254,0.025,true,banana,banana,occlusion,low,mask,partial viewing,few large,Stimulus\all_stim\occlusion\partialviewing\fewlarge\low\fewlarge_partialViewing_low_banana3.png,mask_img/000000023004.png,experiment,p,p,752.59954559998
V3,21,21,Female,Right,227,Block 2,0.6961056999862194,0.05,true,building,building,occlusion,control,mask,partial viewing,many small,Stimulus\all_stim\occlusion\partialviewing\manysmall\control\manysmall_partialViewing_control_building9.png,mask_img/000000036226.png,experiment,w,w,754.031099099986
V3,21,21,Female,Right,228,Block 2,0.7568638999946415,0.1,true,firehydrant,firehydrant,occlusion,high,mask,partial viewing,many small,Stimulus\all_stim\occlusion\partialviewing\manysmall\high\manysmall_partialViewing_high_firehydrant5.png,mask_img/000000050496.png,experiment,q,q,755.6071903999837
V3,21,21,Female,Right,229,Block 2,0.8054282999946736,0.1,true,tree,tree,occlusion,high,mask,partial viewing,many small,Stimulus\all_stim\occlusion\partialviewing\manysmall\high\manysmall_partialViewing_high_tree6.png,mask_img/000000053539.png,experiment,o,o,757.1592469999741
V3,21,21,Female,Right,230,Block 2,0.7560979999834672,0.05,false,bus,building,occlusion,low,mask,partial viewing,few large,Stimulus\all_stim\occlusion\partialviewing\fewlarge\low\fewlarge_partialViewing_low_bus8.png,mask_img/000000026782.png,experiment,w,u,758.6071932999766
V3,21,21,Female,Right,231,Block 2,0.7195650000066962,0.1,true,building,building,occlusion,control,mask,partial viewing,few large,Stimulus\all_stim\occlusion\partialviewing\fewlarge\control\fewlarge_partialViewing_control_building3.png,mask_img/000000003694.png,experiment,w,w,760.2794779999822
V3,21,21,Female,Right,232,Block 2,1.2995608000201173,0.1,false,cat,bird,occlusion,low,mask,partial viewing,few large,Stimulus\all_stim\occlusion\partialviewing\fewlarge\low\fewlarge_partialViewing_low_cat8.png,mask_img/000000028171.png,experiment,i,e,762.4952444999944
V3,21,21,Female,Right,233,Block 2,0.7738583000027575,0.1,true,bus,bus,occlusion,high,mask,partial viewing,few large,Stimulus\all_stim\occlusion\partialviewing\fewlarge\high\fewlarge_partialViewing_high_bus10.png,mask_img/000000015733.png,experiment,u,u,764.343240599992
V3,21,21,Female,Right,234,Block 2,0.7326834999839775,0.05,true,tree,tree,occlusion,control,mask,partial viewing,few large,Stimulus\all_stim\occlusion\partialviewing\fewlarge\control\fewlarge_partialViewing_control_tree6.png,mask_img/000000011328.png,experiment,o,o,765.9593516999739
V3,21,21,Female,Right,235,Block 2,1.1099286999960896,0.05,true,cat,cat,occlusion,high,mask,partial viewing,few large,Stimulus\all_stim\occlusion\partialviewing\fewlarge\high\fewlarge_partialViewing_high_cat9.png,mask_img/000000017858.png,experiment,e,e,767.8473342999932
V3,21,21,Female,Right,236,Block 2,0.7463327000150457,0.05,true,tree,tree,occlusion,low,mask,partial viewing,few large,Stimulus\all_stim\occlusion\partialviewing\fewlarge\low\fewlarge_partialViewing_low_tree9.png,mask_img/000000032965.png,experiment,o,o,769.5192000999814
V3,21,21,Female,Right,237,Block 2,1.581275500007905,0.1,true,firehydrant,firehydrant,occlusion,control,mask,partial viewing,many small,Stimulus\all_stim\occlusion\partialviewing\manysmall\control\manysmall_partialViewing_control_firehydrant6.png,mask_img/000000039406.png,experiment,q,q,772.1513134999841
V3,21,21,Female,Right,238,Block 2,1.0756485000019893,0.05,true,bird,bird,occlusion,control,mask,partial viewing,few large,Stimulus\all_stim\occlusion\partialviewing\fewlarge\control\fewlarge_partialViewing_control_bird5.png,mask_img/000000002197.png,experiment,i,i,774.3512141999963
V3,21,21,Female,Right,239,Block 2,0.6459027999953832,0.1,true,firehydrant,firehydrant,occlusion,high,mask,partial viewing,few large,Stimulus\all_stim\occlusion\partialviewing\fewlarge\high\fewlarge_partialViewing_high_firehydrant9.png,mask_img/000000019725.png,experiment,q,q,775.865702799987
V3,21,21,Female,Right,240,Block 2,0.8675043000257574,0.025,true,tree,tree,occlusion,control,mask,partial viewing,many small,Stimulus\all_stim\occlusion\partialviewing\manysmall\control\manysmall_partialViewing_control_tree3.png,mask_img/000000041014.png,experiment,o,o,777.8154072999896
V3,21,21,Female,Right,241,Block 2,0.7275342999782879,0.025,true,banana,banana,occlusion,control,mask,partial viewing,few large,Stimulus\all_stim\occlusion\partialviewing\fewlarge\control\fewlarge_partialViewing_control_banana5.png,mask_img/000000000459.png,experiment,p,p,779.4552175999852
V3,21,21,Female,Right,242,Block 2,0.7787834999908227,0.1,true,building,building,occlusion,low,mask,partial viewing,many small,Stimulus\all_stim\occlusion\partialviewing\manysmall\low\manysmall_partialViewing_low_building2.png,mask_img/000000057551.png,experiment,w,w,781.0071176999772
V3,21,21,Female,Right,243,Block 2,1.0180082000151742,0.1,true,tree,tree,occlusion,high,mask,partial viewing,many small,Stimulus\all_stim\occlusion\partialviewing\manysmall\high\manysmall_partialViewing_high_tree9.png,mask_img/000000054336.png,experiment,o,o,782.825100099988
V3,21,21,Female,Right,244,Block 2,0.7119093000073917,0.05,true,building,building,occlusion,low,mask,partial viewing,many small,Stimulus\all_stim\occlusion\partialviewing\manysmall\low\manysmall_partialViewing_low_building8.png,mask_img/000000058073.png,experiment,w,w,784.5677703999972
V3,21,21,Female,Right,245,Block 2,0.479281899984926,0.1,true,building,building,occlusion,low,mask,partial viewing,many small,Stimulus\all_stim\occlusion\partialviewing\manysmall\low\manysmall_partialViewing_low_building6.png,mask_img/000000057979.png,experiment,w,w,785.8373418999836
V3,21,21,Female,Right,246,Block 2,1.0059080999926664,0.05,true,bird,bird,occlusion,high,mask,partial viewing,many small,Stimulus\all_stim\occlusion\partialviewing\manysmall\high\manysmall_partialViewing_high_bird3.png,mask_img/000000044123.png,experiment,i,i,787.9992920999939
V3,21,21,Female,Right,247,Block 2,0.621040300000459,0.1,true,person,person,occlusion,control,mask,partial viewing,few large,Stimulus\all_stim\occlusion\partialviewing\fewlarge\control\fewlarge_partialViewing_control_person8.png,mask_img/000000009729.png,experiment,r,r,789.4059602999769
V3,21,21,Female,Right,248,Block 2,1.377429599990137,0.05,true,banana,banana,occlusion,low,mask,partial viewing,few large,Stimulus\all_stim\occlusion\partialviewing\fewlarge\low\fewlarge_partialViewing_low_banana6.png,mask_img/000000023137.png,experiment,p,p,791.9198812999821
V3,21,21,Female,Right,249,Block 2,0.9606674000096973,0.05,true,cat,cat,occlusion,high,mask,partial viewing,few large,Stimulus\all_stim\occlusion\partialviewing\fewlarge\high\fewlarge_partialViewing_high_cat3.png,mask_img/000000017356.png,experiment,e,e,794.0474783999962
V3,21,21,Female,Right,250,Block 2,1.066931300010765,0.1,true,bird,bird,occlusion,low,mask,partial viewing,few large,Stimulus\all_stim\occlusion\partialviewing\fewlarge\low\fewlarge_partialViewing_low_bird4.png,mask_img/000000024193.png,experiment,i,i,796.2476140999934
V3,21,21,Female,Right,251,Block 2,0.7948153999750502,0.05,false,cat,bird,occlusion,high,mask,partial viewing,few large,Stimulus\all_stim\occlusion\partialviewing\fewlarge\high\fewlarge_partialViewing_high_cat8.png,mask_img/000000017791.png,experiment,i,e,797.9353962999885
V3,21,21,Female,Right,252,Block 2,0.7775575999985449,0.025,true,bus,bus,occlusion,control,mask,partial viewing,many small,Stimulus\all_stim\occlusion\partialviewing\manysmall\control\manysmall_partialViewing_control_bus2.png,mask_img/000000036622.png,experiment,u,u,799.8633492999943
V3,21,21,Female,Right,253,Block 2,0.7013568000111263,0.1,true,firehydrant,firehydrant,occlusion,control,mask,partial viewing,many small,Stimulus\all_stim\occlusion\partialviewing\manysmall\control\manysmall_partialViewing_control_firehydrant10.png,mask_img/000000039053.png,experiment,q,q,801.5438832999789
V3,21,21,Female,Right,254,Block 2,0.6269605999987107,0.025,true,banana,banana,occlusion,low,mask,partial viewing,few large,Stimulus\all_stim\occlusion\partialviewing\fewlarge\low\fewlarge_partialViewing_low_banana10.png,mask_img/000000022563.png,experiment,p,p,802.9195301999862
V3,21,21,Female,Right,255,Block 2,0.9414696000167169,0.05,true,cat,cat,occlusion,high,mask,partial viewing,few large,Stimulus\all_stim\occlusion\partialviewing\fewlarge\high\fewlarge_partialViewing_high_cat4.png,mask_img/000000017364.png,experiment,e,e,804.8713332999905
V3,21,21,Female,Right,256,Block 2,1.1749033000087366,0.025,true,bus,bus,occlusion,high,mask,partial viewing,few large,Stimulus\all_stim\occlusion\partialviewing\fewlarge\high\fewlarge_partialViewing_high_bus10.png,mask_img/000000015733.png,experiment,u,u,806.8714487999969
V3,21,21,Female,Right,257,Block 2,0.7649879999808036,0.025,true,firehydrant,firehydrant,occlusion,low,mask,partial viewing,few large,Stimulus\all_stim\occlusion\partialviewing\fewlarge\low\fewlarge_partialViewing_low_firehydrant7.png,mask_img/000000028885.png,experiment,q,q,808.6232080999762
V3,21,21,Female,Right,258,Block 2,0.7541052000015043,0.025,true,tree,tree,occlusion,low,mask,partial viewing,many small,Stimulus\all_stim\occlusion\partialviewing\manysmall\low\manysmall_partialViewing_low_tree1.png,mask_img/000000062690.png,experiment,o,o,810.2395287999825
V3,21,21,Female,Right,259,Block 2,0.8053702000179328,0.05,true,bus,bus,occlusion,low,mask,partial viewing,few large,Stimulus\all_stim\occlusion\partialviewing\fewlarge\low\fewlarge_partialViewing_low_bus2.png,mask_img/000000025858.png,experiment,u,u,811.735279799992
V3,21,21,Female,Right,260,Block 2,0.886852399999043,0.1,true,cat,cat,occlusion,control,mask,partial viewing,many small,Stimulus\all_stim\occlusion\partialviewing\manysmall\control\manysmall_partialViewing_control_cat8.png,mask_img/000000038817.png,experiment,e,e,813.375366799999
V3,21,21,Female,Right,261,Block 2,0.6964423000172246,0.05,true,banana,banana,occlusion,high,mask,partial viewing,few large,Stimulus\all_stim\occlusion\partialviewing\fewlarge\high\fewlarge_partialViewing_high_banana4.png,mask_img/000000012377.png,experiment,p,p,815.1281362999871
V3,21,21,Female,Right,262,Block 2,0.6351721999817528,0.025,true,person,person,occlusion,control,mask,partial viewing,few large,Stimulus\all_stim\occlusion\partialviewing\fewlarge\control\fewlarge_partialViewing_control_person6.png,mask_img/000000009469.png,experiment,r,r,816.5753944999888
V3,21,21,Female,Right,263,Block 2,1.1763662000012118,0.025,false,cat,bird,occlusion,low,mask,partial viewing,many small,Stimulus\all_stim\occlusion\partialviewing\manysmall\low\manysmall_partialViewing_low_cat7.png,mask_img/000000060158.png,experiment,i,e,818.4394613999757
V3,21,21,Female,Right,264,Block 2,0.8146113000111654,0.1,false,person,firehydrant,occlusion,low,mask,partial viewing,few large,Stimulus\all_stim\occlusion\partialviewing\fewlarge\low\fewlarge_partialViewing_low_person9.png,mask_img/000000031017.png,experiment,q,r,820.2557239999878
V3,21,21,Female,Right,265,Block 2,0.6051577000180259,0.05,true,banana,banana,occlusion,control,mask,partial viewing,many small,Stimulus\all_stim\occlusion\partialviewing\manysmall\control\manysmall_partialViewing_control_banana6.png,mask_img/000000033756.png,experiment,p,p,821.7719089999737
V3,21,21,Female,Right,266,Block 2,0.6874196999997366,0.1,true,cat,cat,occlusion,control,mask,partial viewing,many small,Stimulus\all_stim\occlusion\partialviewing\manysmall\control\manysmall_partialViewing_control_cat7.png,mask_img/000000038798.png,experiment,e,e,823.4957338999957
V3,21,21,Female,Right,267,Block 2,0.6502947999979369,0.05,true,firehydrant,firehydrant,occlusion,high,mask,partial viewing,few large,Stimulus\all_stim\occlusion\partialviewing\fewlarge\high\fewlarge_partialViewing_high_firehydrant3.png,mask_img/000000018864.png,experiment,q,q,825.039464499976
V3,21,21,Female,Right,268,Block 2,1.034005400026217,0.05,true,bird,bird,occlusion,high,mask,partial viewing,many small,Stimulus\all_stim\occlusion\partialviewing\manysmall\high\manysmall_partialViewing_high_bird4.png,mask_img/000000044136.png,experiment,i,i,827.1275024999923
V3,21,21,Female,Right,269,Block 2,0.6845293999940623,0.05,true,cat,cat,occlusion,control,mask,partial viewing,few large,Stimulus\all_stim\occlusion\partialviewing\fewlarge\control\fewlarge_partialViewing_control_cat9.png,mask_img/000000007558.png,experiment,e,e,828.9194768999878
V3,21,21,Female,Right,270,Block 2,0.6330667000147514,0.025,true,building,building,occlusion,control,mask,partial viewing,few large,Stimulus\all_stim\occlusion\partialviewing\fewlarge\control\fewlarge_partialViewing_control_building3.png,mask_img/000000003694.png,experiment,w,w,830.4474948999996
V3,21,21,Female,Right,271,Block 2,1.2333579000260215,0.05,false,cat,bird,occlusion,low,mask,partial viewing,many small,Stimulus\all_stim\occlusion\partialviewing\manysmall\low\manysmall_partialViewing_low_cat7.png,mask_img/000000060158.png,experiment,i,e,832.639300699986
V3,21,21,Female,Right,272,Block 2,1.823616799985757,0.025,true,tree,tree,occlusion,low,mask,partial viewing,many small,Stimulus\all_stim\occlusion\partialviewing\manysmall\low\manysmall_partialViewing_low_tree8.png,mask_img/000000063804.png,experiment,o,o,835.2794354999787
V3,21,21,Female,Right,273,Block 2,0.6448982000001706,0.1,true,banana,banana,occlusion,high,mask,partial viewing,few large,Stimulus\all_stim\occlusion\partialviewing\fewlarge\high\fewlarge_partialViewing_high_banana2.png,mask_img/000000012179.png,experiment,p,p,836.9125152999768
V3,21,21,Female,Right,274,Block 2,0.7155961999960709,0.05,false,bird,tree,occlusion,high,mask,partial viewing,many small,Stimulus\all_stim\occlusion\partialviewing\manysmall\high\manysmall_partialViewing_high_bird5.png,mask_img/000000044437.png,experiment,o,i,838.6874707999814
V3,21,21,Female,Right,275,Block 2,0.8852265999885276,0.1,false,person,bird,occlusion,low,mask,partial viewing,many small,Stimulus\all_stim\occlusion\partialviewing\manysmall\low\manysmall_partialViewing_low_person4.png,mask_img/000000062131.png,experiment,i,r,840.4953735999879
V3,21,21,Female,Right,276,Block 2,1.0647923999931663,0.05,true,bus,bus,occlusion,high,mask,partial viewing,many small,Stimulus\all_stim\occlusion\partialviewing\manysmall\high\manysmall_partialViewing_high_bus7.png,mask_img/000000047471.png,experiment,u,u,842.5034978999756
V3,21,21,Female,Right,277,Block 2,0.45912719998159446,0.05,true,bus,bus,occlusion,low,mask,partial viewing,few large,Stimulus\all_stim\occlusion\partialviewing\fewlarge\low\fewlarge_partialViewing_low_bus10.png,mask_img/000000025855.png,experiment,u,u,843.6492853999953
V3,21,21,Female,Right,278,Block 2,0.6723849999834783,0.05,true,tree,tree,occlusion,low,mask,partial viewing,many small,Stimulus\all_stim\occlusion\partialviewing\manysmall\low\manysmall_partialViewing_low_tree2.png,mask_img/000000062875.png,experiment,o,o,845.3321396999818
V3,21,21,Female,Right,279,Block 2,0.5157254000077955,0.05,true,bus,bus,occlusion,low,mask,partial viewing,few large,Stimulus\all_stim\occlusion\partialviewing\fewlarge\low\fewlarge_partialViewing_low_bus6.png,mask_img/000000026503.png,experiment,u,u,846.7007394999964
V3,21,21,Female,Right,280,Block 2,0.73319050000282,0.1,true,building,building,occlusion,control,mask,partial viewing,many small,Stimulus\all_stim\occlusion\partialviewing\manysmall\control\manysmall_partialViewing_control_building5.png,mask_img/000000036004.png,experiment,w,w,848.2715045999794
V3,21,21,Female,Right,281,Block 2,0.6798038000124507,0.05,true,person,person,occlusion,high,mask,partial viewing,few large,Stimulus\all_stim\occlusion\partialviewing\fewlarge\high\fewlarge_partialViewing_high_person9.png,mask_img/000000021003.png,experiment,r,r,850.0876428999763
V3,21,21,Female,Right,282,Block 2,0.6975934999936726,0.05,true,banana,banana,occlusion,low,mask,partial viewing,few large,Stimulus\all_stim\occlusion\partialviewing\fewlarge\low\fewlarge_partialViewing_low_banana7.png,mask_img/000000023511.png,experiment,p,p,851.4714989999775
V3,21,21,Female,Right,283,Block 2,0.8022257999982685,0.1,true,building,building,occlusion,high,mask,partial viewing,many small,Stimulus\all_stim\occlusion\partialviewing\manysmall\high\manysmall_partialViewing_high_building10.png,mask_img/000000044989.png,experiment,w,w,853.3675615999964
V3,21,21,Female,Right,284,Block 2,0.7546845999895595,0.025,true,bus,bus,occlusion,low,mask,partial viewing,many small,Stimulus\all_stim\occlusion\partialviewing\manysmall\low\manysmall_partialViewing_low_bus5.png,mask_img/000000058801.png,experiment,u,u,855.0395139999746
V3,21,21,Female,Right,285,Block 2,0.6067241000127979,0.1,true,firehydrant,firehydrant,occlusion,low,mask,partial viewing,few large,Stimulus\all_stim\occlusion\partialviewing\fewlarge\low\fewlarge_partialViewing_low_firehydrant5.png,mask_img/000000028698.png,experiment,q,q,856.7223147999903
V3,21,21,Female,Right,286,Block 2,2.2058260999911,0.05,true,person,person,occlusion,control,mask,partial viewing,few large,Stimulus\all_stim\occlusion\partialviewing\fewlarge\control\fewlarge_partialViewing_control_person4.png,mask_img/000000009178.png,experiment,r,r,859.7675479999743
V3,21,21,Female,Right,287,Block 2,1.28294089998235,0.1,true,bird,bird,occlusion,control,mask,partial viewing,few large,Stimulus\all_stim\occlusion\partialviewing\fewlarge\control\fewlarge_partialViewing_control_bird6.png,mask_img/000000002337.png,experiment,i,i,861.9274943999771
V3,21,21,Female,Right,288,Block 2,1.0072483000112697,0.05,false,banana,building,occlusion,high,mask,partial viewing,many small,Stimulus\all_stim\occlusion\partialviewing\manysmall\high\manysmall_partialViewing_high_banana4.png,mask_img/000000042499.png,experiment,w,p,923.0400948999741
V3,21,21,Female,Right,289,Block 3,1.01258229999803,0.1,true,bird,bird,occlusion,control,mask,partial viewing,few large,Stimulus\all_stim\occlusion\partialviewing\fewlarge\control\fewlarge_partialViewing_control_bird3.png,mask_img/000000001810.png,experiment,i,i,925.1597295999818
V3,21,21,Female,Right,290,Block 3,0.6642118999734521,0.05,true,person,person,occlusion,control,mask,partial viewing,many small,Stimulus\all_stim\occlusion\partialviewing\manysmall\control\manysmall_partialViewing_control_person8.png,mask_img/000000040466.png,experiment,r,r,926.9570814999752
V3,21,21,Female,Right,291,Block 3,0.6426111000182573,0.05,true,person,person,occlusion,control,mask,partial viewing,many small,Stimulus\all_stim\occlusion\partialviewing\manysmall\control\manysmall_partialViewing_control_person10.png,mask_img/000000039778.png,experiment,r,r,928.6957945999748
V3,21,21,Female,Right,292,Block 3,0.8371725000033621,0.05,true,bus,bus,occlusion,high,mask,partial viewing,many small,Stimulus\all_stim\occlusion\partialviewing\manysmall\high\manysmall_partialViewing_high_bus3.png,mask_img/000000047229.png,experiment,u,u,930.6077853999741
V3,21,21,Female,Right,293,Block 3,0.7569706000213046,0.05,true,banana,banana,occlusion,low,mask,partial viewing,few large,Stimulus\all_stim\occlusion\partialviewing\fewlarge\low\fewlarge_partialViewing_low_banana8.png,mask_img/000000023656.png,experiment,p,p,932.5275929999771
V3,21,21,Female,Right,294,Block 3,0.7258340999833308,0.05,true,banana,banana,occlusion,high,mask,partial viewing,few large,Stimulus\all_stim\occlusion\partialviewing\fewlarge\high\fewlarge_partialViewing_high_banana3.png,mask_img/000000012313.png,experiment,p,p,934.2157281999825
V3,21,21,Female,Right,295,Block 3,1.1092722000030335,0.1,false,banana,bird,occlusion,high,mask,partial viewing,many small,Stimulus\all_stim\occlusion\partialviewing\manysmall\high\manysmall_partialViewing_high_banana7.png,mask_img/000000043024.png,experiment,i,p,936.0239195999748
V3,21,21,Female,Right,296,Block 3,1.0280463000235613,0.1,false,cat,bird,occlusion,high,mask,partial viewing,many small,Stimulus\all_stim\occlusion\partialviewing\manysmall\high\manysmall_partialViewing_high_cat2.png,mask_img/000000049092.png,experiment,i,e,938.1286491999927
V3,21,21,Female,Right,297,Block 3,0.6860780999995768,0.025,true,bus,bus,occlusion,control,mask,partial viewing,few large,Stimulus\all_stim\occlusion\partialviewing\fewlarge\control\fewlarge_partialViewing_control_bus9.png,mask_img/000000006263.png,experiment,u,u,939.5359777999984
V3,21,21,Female,Right,298,Block 3,0.9198330999934115,0.05,true,tree,tree,occlusion,low,mask,partial viewing,many small,Stimulus\all_stim\occlusion\partialviewing\manysmall\low\manysmall_partialViewing_low_tree1.png,mask_img/000000062690.png,experiment,o,o,941.1925728999777
V3,21,21,Female,Right,299,Block 3,1.6255852000031155,0.025,true,building,building,occlusion,high,mask,partial viewing,many small,Stimulus\all_stim\occlusion\partialviewing\manysmall\high\manysmall_partialViewing_high_building2.png,mask_img/000000045306.png,experiment,w,w,943.6959322999755
V3,21,21,Female,Right,300,Block 3,0.8327856999821961,0.05,true,tree,tree,occlusion,high,mask,partial viewing,many small,Stimulus\all_stim\occlusion\partialviewing\manysmall\high\manysmall_partialViewing_high_tree2.png,mask_img/000000052901.png,experiment,o,o,945.440282399999
V3,21,21,Female,Right,301,Block 3,0.6212821000081021,0.1,true,tree,tree,occlusion,low,mask,partial viewing,few large,Stimulus\all_stim\occlusion\partialviewing\fewlarge\low\fewlarge_partialViewing_low_tree4.png,mask_img/000000032364.png,experiment,o,o,946.9504379999998
V3,21,21,Female,Right,302,Block 3,0.5169569000136107,0.1,true,tree,tree,occlusion,control,mask,partial viewing,many small,Stimulus\all_stim\occlusion\partialviewing\manysmall\control\manysmall_partialViewing_control_tree1.png,mask_img/000000040886.png,experiment,o,o,948.3344547000015
V3,21,21,Female,Right,303,Block 3,0.6519344999978784,0.05,true,person,person,occlusion,control,mask,partial viewing,many small,Stimulus\all_stim\occlusion\partialviewing\manysmall\control\manysmall_partialViewing_control_person6.png,mask_img/000000040325.png,experiment,r,r,950.1120256999857
V3,21,21,Female,Right,304,Block 3,0.6720050000003539,0.05,true,building,building,occlusion,low,mask,partial viewing,few large,Stimulus\all_stim\occlusion\partialviewing\fewlarge\low\fewlarge_partialViewing_low_building2.png,mask_img/000000024702.png,experiment,w,w,951.5359643999836
V3,21,21,Female,Right,305,Block 3,1.4106901999912225,0.1,false,person,bird,occlusion,low,mask,partial viewing,many small,Stimulus\all_stim\occlusion\partialviewing\manysmall\low\manysmall_partialViewing_low_person1.png,mask_img/000000061780.png,experiment,i,r,954.0877380999736
V3,21,21,Female,Right,306,Block 3,0.9188742999976967,0.05,false,person,banana,occlusion,high,mask,partial viewing,few large,Stimulus\all_stim\occlusion\partialviewing\fewlarge\high\fewlarge_partialViewing_high_person10.png,mask_img/000000019927.png,experiment,p,r,956.111917799979
V3,21,21,Female,Right,307,Block 3,1.0103392000019085,0.1,false,banana,bird,occlusion,high,mask,partial viewing,many small,Stimulus\all_stim\occlusion\partialviewing\manysmall\high\manysmall_partialViewing_high_banana8.png,mask_img/000000043291.png,experiment,i,p,958.0317839999916
V3,21,21,Female,Right,308,Block 3,0.641174200020032,0.05,true,building,building,occlusion,low,mask,partial viewing,many small,Stimulus\all_stim\occlusion\partialviewing\manysmall\low\manysmall_partialViewing_low_building1.png,mask_img/000000056716.png,experiment,w,w,959.6479377999785
