Version,pt_num,Age,Gender,Handedness,trial_nbr,block_number,rt,soa,acc,category,choiced_category,manipulation,difficulty,mask,type_occl,size_occl,filename,mask_filename,task,pressed_key,correct_key,Experiment Duration
V3,18,22,Female,Right,1,Training,2.1720200999407098,0.1,true,bus,bus,occlusion,low,mask,partial viewing,few large,Training_Stimulus\fewlarge_partialViewing_low_bus180.png,mask_img/000000002892.png,training,o,o,115.28234400006477
V3,18,22,Female,Right,2,Training,2.0863850999157876,0.025,true,firehydrant,firehydrant,occlusion,control,mask,partial viewing,few large,Training_Stimulus\fewlarge_partialViewing_control_firehydrant90.png,mask_img/000000000459.png,training,u,u,118.67336869996507
V3,18,22,Female,Right,3,Training,1.3485717000439763,0.1,true,person,person,occlusion,low,mask,partial viewing,few large,Training_Stimulus\fewlarge_partialViewing_low_person189.png,mask_img/000000003483.png,training,q,q,121.25048070005141
V3,18,22,Female,Right,4,Training,1.3021036999998614,0.05,true,bird,bird,occlusion,control,mask,partial viewing,few large,Training_Stimulus\fewlarge_partialViewing_control_bird4.png,mask_img/000000000109.png,training,w,w,124.0947756000096
V3,18,22,Female,Right,5,Training,2.0434936999808997,0.025,true,bus,bus,occlusion,high,mask,partial viewing,many small,Training_Stimulus\manysmall_partialViewing_high_bus180.png,mask_img/000000005615.png,training,o,o,127.60843010002282
V3,18,22,Female,Right,6,Training,2.305194600019604,0.05,true,tree,tree,occlusion,control,mask,partial viewing,many small,Training_Stimulus\manysmall_partialViewing_control_tree9.png,mask_img/000000005282.png,training,i,i,131.43690069997683
V3,18,22,Female,Right,7,Training,1.223221999942325,0.05,true,tree,tree,occlusion,high,mask,partial viewing,many small,Training_Stimulus\manysmall_partialViewing_high_tree9.png,mask_img/000000006263.png,training,i,i,134.17107649997342
V3,18,22,Female,Right,8,Training,1.2562385000055656,0.1,true,firehydrant,firehydrant,occlusion,low,mask,partial viewing,few large,Training_Stimulus\fewlarge_partialViewing_low_firehydrant90.png,mask_img/000000003225.png,training,u,u,136.98377519997302
V3,18,22,Female,Right,1,Block 1,2.304702900000848,0.025,false,bird,bus,occlusion,low,mask,partial viewing,few large,Stimulus\all_stim\occlusion\partialviewing\fewlarge\low\fewlarge_partialViewing_low_bird3.png,mask_img/000000024157.png,experiment,o,w,210.38324570003897
V3,18,22,Female,Right,2,Block 1,1.1657489999197423,0.05,true,building,building,occlusion,high,mask,partial viewing,many small,Stimulus\all_stim\occlusion\partialviewing\manysmall\high\manysmall_partialViewing_high_building3.png,mask_img/000000045655.png,experiment,p,p,212.43098920001648
V3,18,22,Female,Right,3,Block 1,1.3013577000238001,0.025,true,bus,bus,occlusion,control,mask,partial viewing,few large,Stimulus\all_stim\occlusion\partialviewing\fewlarge\control\fewlarge_partialViewing_control_bus7.png,mask_img/000000006146.png,experiment,o,o,214.92672320001293
V3,18,22,Female,Right,4,Block 1,1.0998662000056356,0.05,true,person,person,occlusion,low,mask,partial viewing,many small,Stimulus\all_stim\occlusion\partialviewing\manysmall\low\manysmall_partialViewing_low_person7.png,mask_img/000000062350.png,experiment,q,q,217.14276640000753
V3,18,22,Female,Right,5,Block 1,1.127301499946043,0.05,true,bus,bus,occlusion,high,mask,partial viewing,many small,Stimulus\all_stim\occlusion\partialviewing\manysmall\high\manysmall_partialViewing_high_bus8.png,mask_img/000000048169.png,experiment,o,o,218.96657609997783
V3,18,22,Female,Right,6,Block 1,1.080067600007169,0.025,false,tree,firehydrant,occlusion,low,mask,partial viewing,many small,Stimulus\all_stim\occlusion\partialviewing\manysmall\low\manysmall_partialViewing_low_tree3.png,mask_img/000000063147.png,experiment,u,i,221.15912169998046
V3,18,22,Female,Right,7,Block 1,1.4340269999811426,0.05,true,cat,cat,occlusion,high,mask,partial viewing,few large,Stimulus\all_stim\occlusion\partialviewing\fewlarge\high\fewlarge_partialViewing_high_cat6.png,mask_img/000000017476.png,experiment,e,e,223.47873039997648
V3,18,22,Female,Right,8,Block 1,1.320065899984911,0.025,true,building,building,occlusion,low,mask,partial viewing,many small,Stimulus\all_stim\occlusion\partialviewing\manysmall\low\manysmall_partialViewing_low_building3.png,mask_img/000000057646.png,experiment,p,p,225.89507239998784
V3,18,22,Female,Right,9,Block 1,1.4093158000614494,0.025,true,cat,cat,occlusion,low,mask,partial viewing,few large,Stimulus\all_stim\occlusion\partialviewing\fewlarge\low\fewlarge_partialViewing_low_cat6.png,mask_img/000000027764.png,experiment,e,e,228.03072559996508
V3,18,22,Female,Right,10,Block 1,1.8637776999967173,0.025,false,cat,tree,occlusion,high,mask,partial viewing,many small,Stimulus\all_stim\occlusion\partialviewing\manysmall\high\manysmall_partialViewing_high_cat8.png,mask_img/000000049763.png,experiment,i,e,230.83114829997066
V3,18,22,Female,Right,11,Block 1,1.0638345000334084,0.05,true,firehydrant,firehydrant,occlusion,low,mask,partial viewing,many small,Stimulus\all_stim\occlusion\partialviewing\manysmall\low\manysmall_partialViewing_low_firehydrant10.png,mask_img/000000060529.png,experiment,u,u,232.63107909995597
V3,18,22,Female,Right,12,Block 1,1.5866229999810457,0.1,true,banana,banana,occlusion,control,mask,partial viewing,few large,Stimulus\all_stim\occlusion\partialviewing\fewlarge\control\fewlarge_partialViewing_control_banana5.png,mask_img/000000000459.png,experiment,r,r,235.038712700014
V3,18,22,Female,Right,13,Block 1,1.0195228999946266,0.05,true,banana,banana,occlusion,low,mask,partial viewing,many small,Stimulus\all_stim\occlusion\partialviewing\manysmall\low\manysmall_partialViewing_low_banana8.png,mask_img/000000055630.png,experiment,r,r,236.8466049999697
V3,18,22,Female,Right,14,Block 1,1.1925439999904484,0.1,true,tree,tree,occlusion,control,mask,partial viewing,few large,Stimulus\all_stim\occlusion\partialviewing\fewlarge\control\fewlarge_partialViewing_control_tree10.png,mask_img/000000010414.png,experiment,i,i,238.77497170004062
V3,18,22,Female,Right,15,Block 1,0.8948112000944093,0.025,true,firehydrant,firehydrant,occlusion,control,mask,partial viewing,many small,Stimulus\all_stim\occlusion\partialviewing\manysmall\control\manysmall_partialViewing_control_firehydrant5.png,mask_img/000000039211.png,experiment,u,u,240.62272310000844
V3,18,22,Female,Right,16,Block 1,0.7508368999697268,0.025,true,firehydrant,firehydrant,occlusion,control,mask,partial viewing,many small,Stimulus\all_stim\occlusion\partialviewing\manysmall\control\manysmall_partialViewing_control_firehydrant6.png,mask_img/000000039406.png,experiment,u,u,242.11873920005746
V3,18,22,Female,Right,17,Block 1,1.8306890999665484,0.1,true,cat,cat,occlusion,high,mask,partial viewing,few large,Stimulus\all_stim\occlusion\partialviewing\fewlarge\high\fewlarge_partialViewing_high_cat7.png,mask_img/000000017580.png,experiment,e,e,245.09461040003225
V3,18,22,Female,Right,18,Block 1,1.0822758000576869,0.025,true,tree,tree,occlusion,control,mask,partial viewing,many small,Stimulus\all_stim\occlusion\partialviewing\manysmall\control\manysmall_partialViewing_control_tree8.png,mask_img/000000041577.png,experiment,i,i,247.28692480002064
V3,18,22,Female,Right,19,Block 1,0.7922896000090986,0.1,true,firehydrant,firehydrant,occlusion,low,mask,partial viewing,few large,Stimulus\all_stim\occlusion\partialviewing\fewlarge\low\fewlarge_partialViewing_low_firehydrant8.png,mask_img/000000028988.png,experiment,u,u,248.8946940000169
V3,18,22,Female,Right,20,Block 1,1.608591900090687,0.05,true,bird,bird,occlusion,low,mask,partial viewing,few large,Stimulus\all_stim\occlusion\partialviewing\fewlarge\low\fewlarge_partialViewing_low_bird6.png,mask_img/000000024247.png,experiment,w,w,251.40694759995677
V3,18,22,Female,Right,21,Block 1,1.4061709999805316,0.05,true,bus,bus,occlusion,control,mask,partial viewing,many small,Stimulus\all_stim\occlusion\partialviewing\manysmall\control\manysmall_partialViewing_control_bus2.png,mask_img/000000036622.png,experiment,o,o,253.91070160001982
V3,18,22,Female,Right,22,Block 1,1.200984499999322,0.025,true,banana,banana,occlusion,control,mask,partial viewing,many small,Stimulus\all_stim\occlusion\partialviewing\manysmall\control\manysmall_partialViewing_control_banana6.png,mask_img/000000033756.png,experiment,r,r,256.24669359996915
V3,18,22,Female,Right,23,Block 1,1.0698730999138206,0.05,true,bus,bus,occlusion,low,mask,partial viewing,few large,Stimulus\all_stim\occlusion\partialviewing\fewlarge\low\fewlarge_partialViewing_low_bus1.png,mask_img/000000025820.png,experiment,o,o,258.0626692000078
V3,18,22,Female,Right,24,Block 1,0.77749110001605,0.05,true,bus,bus,occlusion,high,mask,partial viewing,few large,Stimulus\all_stim\occlusion\partialviewing\fewlarge\high\fewlarge_partialViewing_high_bus8.png,mask_img/000000016715.png,experiment,o,o,259.9030284000328
V3,18,22,Female,Right,25,Block 1,1.3153389999642968,0.1,true,bird,bird,occlusion,low,mask,partial viewing,many small,Stimulus\all_stim\occlusion\partialviewing\manysmall\low\manysmall_partialViewing_low_bird2.png,mask_img/000000055737.png,experiment,w,w,262.0386415000539
V3,18,22,Female,Right,26,Block 1,0.8355588000267744,0.1,true,firehydrant,firehydrant,occlusion,low,mask,partial viewing,many small,Stimulus\all_stim\occlusion\partialviewing\manysmall\low\manysmall_partialViewing_low_firehydrant5.png,mask_img/000000060623.png,experiment,u,u,263.9586554999696
V3,18,22,Female,Right,27,Block 1,1.012758900062181,0.1,true,cat,cat,occlusion,control,mask,partial viewing,many small,Stimulus\all_stim\occlusion\partialviewing\manysmall\control\manysmall_partialViewing_control_cat5.png,mask_img/000000038601.png,experiment,e,e,265.9025012999773
V3,18,22,Female,Right,28,Block 1,2.4643429999705404,0.025,false,building,firehydrant,occlusion,high,mask,partial viewing,few large,Stimulus\all_stim\occlusion\partialviewing\fewlarge\high\fewlarge_partialViewing_high_building1.png,mask_img/000000014335.png,experiment,u,p,269.3104085000232
V3,18,22,Female,Right,29,Block 1,0.937449699966237,0.05,true,tree,tree,occlusion,low,mask,partial viewing,few large,Stimulus\all_stim\occlusion\partialviewing\fewlarge\low\fewlarge_partialViewing_low_tree3.png,mask_img/000000031717.png,experiment,i,i,270.9504343000008
V3,18,22,Female,Right,30,Block 1,1.2793280000332743,0.025,true,bus,bus,occlusion,high,mask,partial viewing,few large,Stimulus\all_stim\occlusion\partialviewing\fewlarge\high\fewlarge_partialViewing_high_bus5.png,mask_img/000000015986.png,experiment,o,o,273.29449949995615
V3,18,22,Female,Right,31,Block 1,1.7174209000077099,0.025,false,building,firehydrant,occlusion,high,mask,partial viewing,few large,Stimulus\all_stim\occlusion\partialviewing\fewlarge\high\fewlarge_partialViewing_high_building9.png,mask_img/000000015619.png,experiment,u,p,276.0784900999861
V3,18,22,Female,Right,32,Block 1,0.650190299958922,0.025,true,firehydrant,firehydrant,occlusion,control,mask,partial viewing,few large,Stimulus\all_stim\occlusion\partialviewing\fewlarge\control\fewlarge_partialViewing_control_firehydrant10.png,mask_img/000000007758.png,experiment,u,u,277.8869238999905
V3,18,22,Female,Right,33,Block 1,1.2118197999661788,0.1,false,tree,firehydrant,occlusion,high,mask,partial viewing,few large,Stimulus\all_stim\occlusion\partialviewing\fewlarge\high\fewlarge_partialViewing_high_tree8.png,mask_img/000000022355.png,experiment,u,i,279.88719130004756
V3,18,22,Female,Right,34,Block 1,0.8892116999486461,0.1,true,firehydrant,firehydrant,occlusion,high,mask,partial viewing,few large,Stimulus\all_stim\occlusion\partialviewing\fewlarge\high\fewlarge_partialViewing_high_firehydrant4.png,mask_img/000000018882.png,experiment,u,u,281.7665947000496
V3,18,22,Female,Right,35,Block 1,0.7738386000273749,0.025,true,firehydrant,firehydrant,occlusion,high,mask,partial viewing,few large,Stimulus\all_stim\occlusion\partialviewing\fewlarge\high\fewlarge_partialViewing_high_firehydrant8.png,mask_img/000000019528.png,experiment,u,u,283.43056140001863
V3,18,22,Female,Right,36,Block 1,0.7737709999782965,0.025,true,bus,bus,occlusion,control,mask,partial viewing,many small,Stimulus\all_stim\occlusion\partialviewing\manysmall\control\manysmall_partialViewing_control_bus5.png,mask_img/000000037140.png,experiment,o,o,284.894607800059
V3,18,22,Female,Right,37,Block 1,0.9062477999832481,0.1,true,building,building,occlusion,control,mask,partial viewing,many small,Stimulus\all_stim\occlusion\partialviewing\manysmall\control\manysmall_partialViewing_control_building10.png,mask_img/000000035857.png,experiment,p,p,286.55080129997805
V3,18,22,Female,Right,38,Block 1,0.823745800065808,0.1,true,building,building,occlusion,control,mask,partial viewing,few large,Stimulus\all_stim\occlusion\partialviewing\fewlarge\control\fewlarge_partialViewing_control_building7.png,mask_img/000000004936.png,experiment,p,p,288.55053839995526
V3,18,22,Female,Right,39,Block 1,1.3841274000005797,0.1,true,banana,banana,occlusion,high,mask,partial viewing,few large,Stimulus\all_stim\occlusion\partialviewing\fewlarge\high\fewlarge_partialViewing_high_banana9.png,mask_img/000000012999.png,experiment,r,r,290.7826432000147
V3,18,22,Female,Right,40,Block 1,0.8722094000549987,0.05,true,banana,banana,occlusion,high,mask,partial viewing,many small,Stimulus\all_stim\occlusion\partialviewing\manysmall\high\manysmall_partialViewing_high_banana9.png,mask_img/000000043579.png,experiment,r,r,292.53455590002704
V3,18,22,Female,Right,41,Block 1,0.8430370999267325,0.05,true,firehydrant,firehydrant,occlusion,control,mask,partial viewing,many small,Stimulus\all_stim\occlusion\partialviewing\manysmall\control\manysmall_partialViewing_control_firehydrant9.png,mask_img/000000039643.png,experiment,u,u,294.5027104000328
V3,18,22,Female,Right,42,Block 1,0.9225864999461919,0.025,true,building,building,occlusion,control,mask,partial viewing,few large,Stimulus\all_stim\occlusion\partialviewing\fewlarge\control\fewlarge_partialViewing_control_building4.png,mask_img/000000004239.png,experiment,p,p,296.28669169999193
V3,18,22,Female,Right,43,Block 1,0.9766044999705628,0.05,true,tree,tree,occlusion,low,mask,partial viewing,few large,Stimulus\all_stim\occlusion\partialviewing\fewlarge\low\fewlarge_partialViewing_low_tree6.png,mask_img/000000032720.png,experiment,i,i,298.3428199000191
V3,18,22,Female,Right,44,Block 1,0.6334212999790907,0.1,true,firehydrant,firehydrant,occlusion,high,mask,partial viewing,few large,Stimulus\all_stim\occlusion\partialviewing\fewlarge\high\fewlarge_partialViewing_high_firehydrant7.png,mask_img/000000019463.png,experiment,u,u,299.8186479000142
V3,18,22,Female,Right,45,Block 1,1.1267886999994516,0.025,true,bus,bus,occlusion,high,mask,partial viewing,many small,Stimulus\all_stim\occlusion\partialviewing\manysmall\high\manysmall_partialViewing_high_bus5.png,mask_img/000000047395.png,experiment,o,o,302.0386937999865
V3,18,22,Female,Right,46,Block 1,0.917014200007543,0.05,false,cat,tree,occlusion,low,mask,partial viewing,many small,Stimulus\all_stim\occlusion\partialviewing\manysmall\low\manysmall_partialViewing_low_cat3.png,mask_img/000000059442.png,experiment,i,e,304.00670629995875
V3,18,22,Female,Right,47,Block 1,0.6487839999608696,0.05,true,building,building,occlusion,low,mask,partial viewing,many small,Stimulus\all_stim\occlusion\partialviewing\manysmall\low\manysmall_partialViewing_low_building6.png,mask_img/000000057979.png,experiment,p,p,305.48738409997895
V3,18,22,Female,Right,48,Block 1,0.7824430000036955,0.05,true,person,person,occlusion,control,mask,partial viewing,few large,Stimulus\all_stim\occlusion\partialviewing\fewlarge\control\fewlarge_partialViewing_control_person4.png,mask_img/000000009178.png,experiment,q,q,307.1349657999817
V3,18,22,Female,Right,49,Block 1,1.2820554000791162,0.1,true,bird,bird,occlusion,low,mask,partial viewing,many small,Stimulus\all_stim\occlusion\partialviewing\manysmall\low\manysmall_partialViewing_low_bird5.png,mask_img/000000055942.png,experiment,w,w,309.21468169998843
V3,18,22,Female,Right,50,Block 1,0.7899740000721067,0.05,true,person,person,occlusion,control,mask,partial viewing,many small,Stimulus\all_stim\occlusion\partialviewing\manysmall\control\manysmall_partialViewing_control_person10.png,mask_img/000000039778.png,experiment,q,q,311.0787710000295
V3,18,22,Female,Right,51,Block 1,0.7977831999305636,0.1,true,person,person,occlusion,high,mask,partial viewing,many small,Stimulus\all_stim\occlusion\partialviewing\manysmall\high\manysmall_partialViewing_high_person4.png,mask_img/000000052087.png,experiment,q,q,312.9589910999639
V3,18,22,Female,Right,52,Block 1,0.8340994999743998,0.025,true,bus,bus,occlusion,low,mask,partial viewing,few large,Stimulus\all_stim\occlusion\partialviewing\fewlarge\low\fewlarge_partialViewing_low_bus2.png,mask_img/000000025858.png,experiment,o,o,314.9186007999815
V3,18,22,Female,Right,53,Block 1,1.3459409000352025,0.025,false,banana,bus,occlusion,low,mask,partial viewing,many small,Stimulus\all_stim\occlusion\partialviewing\manysmall\low\manysmall_partialViewing_low_banana10.png,mask_img/000000054723.png,experiment,o,r,317.1992167000426
V3,18,22,Female,Right,54,Block 1,1.1550833999644965,0.025,true,cat,cat,occlusion,high,mask,partial viewing,few large,Stimulus\all_stim\occlusion\partialviewing\fewlarge\high\fewlarge_partialViewing_high_cat5.png,mask_img/000000017409.png,experiment,e,e,319.3109283000231
V3,18,22,Female,Right,55,Block 1,0.7050535000162199,0.05,true,firehydrant,firehydrant,occlusion,control,mask,partial viewing,many small,Stimulus\all_stim\occlusion\partialviewing\manysmall\control\manysmall_partialViewing_control_firehydrant10.png,mask_img/000000039053.png,experiment,u,u,321.162248800043
V3,18,22,Female,Right,56,Block 1,0.9317660999950022,0.05,false,bus,firehydrant,occlusion,control,mask,partial viewing,many small,Stimulus\all_stim\occlusion\partialviewing\manysmall\control\manysmall_partialViewing_control_bus7.png,mask_img/000000037339.png,experiment,u,o,322.7909196000546
V3,18,22,Female,Right,57,Block 1,0.6617204000940546,0.025,true,building,building,occlusion,control,mask,partial viewing,many small,Stimulus\all_stim\occlusion\partialviewing\manysmall\control\manysmall_partialViewing_control_building8.png,mask_img/000000036091.png,experiment,p,p,324.4634792000288
V3,18,22,Female,Right,58,Block 1,0.9711691000266001,0.1,true,bird,bird,occlusion,low,mask,partial viewing,few large,Stimulus\all_stim\occlusion\partialviewing\fewlarge\low\fewlarge_partialViewing_low_bird7.png,mask_img/000000024403.png,experiment,w,w,326.15131340001244
V3,18,22,Female,Right,59,Block 1,0.9077851000474766,0.025,true,cat,cat,occlusion,high,mask,partial viewing,few large,Stimulus\all_stim\occlusion\partialviewing\fewlarge\high\fewlarge_partialViewing_high_cat4.png,mask_img/000000017364.png,experiment,e,e,327.78248609998263
V3,18,22,Female,Right,60,Block 1,0.6457575000822544,0.025,true,person,person,occlusion,control,mask,partial viewing,few large,Stimulus\all_stim\occlusion\partialviewing\fewlarge\control\fewlarge_partialViewing_control_person4.png,mask_img/000000009178.png,experiment,q,q,329.3987801000476
V3,18,22,Female,Right,61,Block 1,1.683394700055942,0.05,true,bird,bird,occlusion,low,mask,partial viewing,few large,Stimulus\all_stim\occlusion\partialviewing\fewlarge\low\fewlarge_partialViewing_low_bird8.png,mask_img/000000024404.png,experiment,w,w,332.0468928000191
V3,18,22,Female,Right,62,Block 1,0.7524438999826089,0.025,true,firehydrant,firehydrant,occlusion,control,mask,partial viewing,many small,Stimulus\all_stim\occlusion\partialviewing\manysmall\control\manysmall_partialViewing_control_firehydrant1.png,mask_img/000000039012.png,experiment,u,u,333.6710597999627
V3,18,22,Female,Right,63,Block 1,1.2467565999832004,0.05,true,banana,banana,occlusion,high,mask,partial viewing,few large,Stimulus\all_stim\occlusion\partialviewing\fewlarge\high\fewlarge_partialViewing_high_banana9.png,mask_img/000000012999.png,experiment,r,r,335.8707333999919
V3,18,22,Female,Right,64,Block 1,2.2531812000088394,0.05,true,person,person,occlusion,high,mask,partial viewing,few large,Stimulus\all_stim\occlusion\partialviewing\fewlarge\high\fewlarge_partialViewing_high_person6.png,mask_img/000000020392.png,experiment,q,q,339.1508543000091
V3,18,22,Female,Right,65,Block 1,1.1567557000089437,0.1,true,banana,banana,occlusion,low,mask,partial viewing,few large,Stimulus\all_stim\occlusion\partialviewing\fewlarge\low\fewlarge_partialViewing_low_banana6.png,mask_img/000000023137.png,experiment,r,r,341.16678239998873
V3,18,22,Female,Right,66,Block 1,1.0374083999777213,0.1,true,bus,bus,occlusion,low,mask,partial viewing,few large,Stimulus\all_stim\occlusion\partialviewing\fewlarge\low\fewlarge_partialViewing_low_bus8.png,mask_img/000000026782.png,experiment,o,o,343.1506800999632
V3,18,22,Female,Right,67,Block 1,0.9474886000389233,0.025,true,cat,cat,occlusion,high,mask,partial viewing,few large,Stimulus\all_stim\occlusion\partialviewing\fewlarge\high\fewlarge_partialViewing_high_cat3.png,mask_img/000000017356.png,experiment,e,e,345.2306618000148
V3,18,22,Female,Right,68,Block 1,1.2656239001080394,0.05,true,bird,bird,occlusion,control,mask,partial viewing,many small,Stimulus\all_stim\occlusion\partialviewing\manysmall\control\manysmall_partialViewing_control_bird7.png,mask_img/000000035132.png,experiment,w,w,347.71894160006195
V3,18,22,Female,Right,69,Block 1,0.8474191999994218,0.05,true,bus,bus,occlusion,high,mask,partial viewing,many small,Stimulus\all_stim\occlusion\partialviewing\manysmall\high\manysmall_partialViewing_high_bus3.png,mask_img/000000047229.png,experiment,o,o,349.62268250004854
V3,18,22,Female,Right,70,Block 1,0.6630429000360891,0.1,true,bus,bus,occlusion,high,mask,partial viewing,many small,Stimulus\all_stim\occlusion\partialviewing\manysmall\high\manysmall_partialViewing_high_bus10.png,mask_img/000000046805.png,experiment,o,o,351.35995209997054
V3,18,22,Female,Right,71,Block 1,0.7220499000977725,0.025,true,bus,bus,occlusion,low,mask,partial viewing,few large,Stimulus\all_stim\occlusion\partialviewing\fewlarge\low\fewlarge_partialViewing_low_bus6.png,mask_img/000000026503.png,experiment,o,o,352.80697839998174
V3,18,22,Female,Right,72,Block 1,0.8965533999726176,0.05,true,tree,tree,occlusion,high,mask,partial viewing,many small,Stimulus\all_stim\occlusion\partialviewing\manysmall\high\manysmall_partialViewing_high_tree4.png,mask_img/000000053143.png,experiment,i,i,354.41467610001564
V3,18,22,Female,Right,73,Block 1,0.8824720999691635,0.05,true,cat,cat,occlusion,control,mask,partial viewing,many small,Stimulus\all_stim\occlusion\partialviewing\manysmall\control\manysmall_partialViewing_control_cat9.png,mask_img/000000038862.png,experiment,e,e,356.44684170000255
V3,18,22,Female,Right,74,Block 1,0.6778504999820143,0.1,true,building,building,occlusion,control,mask,partial viewing,few large,Stimulus\all_stim\occlusion\partialviewing\fewlarge\control\fewlarge_partialViewing_control_building10.png,mask_img/000000003225.png,experiment,p,p,358.2967273000395
V3,18,22,Female,Right,75,Block 1,1.2038694999646395,0.05,true,bird,bird,occlusion,high,mask,partial viewing,many small,Stimulus\all_stim\occlusion\partialviewing\manysmall\high\manysmall_partialViewing_high_bird1.png,mask_img/000000043966.png,experiment,w,w,360.4066277999664
V3,18,22,Female,Right,76,Block 1,0.7797488000942394,0.025,false,tree,bus,occlusion,high,mask,partial viewing,many small,Stimulus\all_stim\occlusion\partialviewing\manysmall\high\manysmall_partialViewing_high_tree7.png,mask_img/000000053635.png,experiment,o,i,362.35066250001546
V3,18,22,Female,Right,77,Block 1,0.7077107999939471,0.1,true,tree,tree,occlusion,high,mask,partial viewing,many small,Stimulus\all_stim\occlusion\partialviewing\manysmall\high\manysmall_partialViewing_high_tree3.png,mask_img/000000052936.png,experiment,i,i,363.92667039996013
V3,18,22,Female,Right,78,Block 1,0.6522570999804884,0.05,true,person,person,occlusion,control,mask,partial viewing,many small,Stimulus\all_stim\occlusion\partialviewing\manysmall\control\manysmall_partialViewing_control_person2.png,mask_img/000000039971.png,experiment,q,q,365.79048690001946
V3,18,22,Female,Right,79,Block 1,0.7304501000326127,0.05,true,bird,bird,occlusion,control,mask,partial viewing,few large,Stimulus\all_stim\occlusion\partialviewing\fewlarge\control\fewlarge_partialViewing_control_bird2.png,mask_img/000000001647.png,experiment,w,w,367.6544279999798
V3,18,22,Female,Right,80,Block 1,0.7784522000001743,0.025,true,person,person,occlusion,low,mask,partial viewing,many small,Stimulus\all_stim\occlusion\partialviewing\manysmall\low\manysmall_partialViewing_low_person4.png,mask_img/000000062131.png,experiment,q,q,369.4784179000417
V3,18,22,Female,Right,81,Block 1,0.7885749000124633,0.025,true,person,person,occlusion,control,mask,partial viewing,few large,Stimulus\all_stim\occlusion\partialviewing\fewlarge\control\fewlarge_partialViewing_control_person9.png,mask_img/000000009809.png,experiment,q,q,371.4384035000112
V3,18,22,Female,Right,82,Block 1,1.723732899990864,0.05,false,banana,cat,occlusion,high,mask,partial viewing,many small,Stimulus\all_stim\occlusion\partialviewing\manysmall\high\manysmall_partialViewing_high_banana7.png,mask_img/000000043024.png,experiment,e,r,373.84682540001813
V3,18,22,Female,Right,83,Block 1,0.8885934000136331,0.1,true,tree,tree,occlusion,control,mask,partial viewing,few large,Stimulus\all_stim\occlusion\partialviewing\fewlarge\control\fewlarge_partialViewing_control_tree7.png,mask_img/000000011504.png,experiment,i,i,375.83871170005295
V3,18,22,Female,Right,84,Block 1,0.6339550000848249,0.1,true,building,building,occlusion,control,mask,partial viewing,many small,Stimulus\all_stim\occlusion\partialviewing\manysmall\control\manysmall_partialViewing_control_building8.png,mask_img/000000036091.png,experiment,p,p,377.6228308000136
V3,18,22,Female,Right,85,Block 1,2.1227335000876337,0.05,true,bird,bird,occlusion,low,mask,partial viewing,many small,Stimulus\all_stim\occlusion\partialviewing\manysmall\low\manysmall_partialViewing_low_bird4.png,mask_img/000000055859.png,experiment,w,w,380.7985751000233
V3,18,22,Female,Right,86,Block 1,0.6520748999901116,0.05,true,building,building,occlusion,high,mask,partial viewing,few large,Stimulus\all_stim\occlusion\partialviewing\fewlarge\high\fewlarge_partialViewing_high_building6.png,mask_img/000000014774.png,experiment,p,p,382.2587178000249
V3,18,22,Female,Right,87,Block 1,0.9499759000027552,0.025,false,cat,bird,occlusion,low,mask,partial viewing,many small,Stimulus\all_stim\occlusion\partialviewing\manysmall\low\manysmall_partialViewing_low_cat8.png,mask_img/000000060245.png,experiment,w,e,384.0548130000243
V3,18,22,Female,Right,88,Block 1,1.3340967999538407,0.05,true,building,building,occlusion,high,mask,partial viewing,few large,Stimulus\all_stim\occlusion\partialviewing\fewlarge\high\fewlarge_partialViewing_high_building1.png,mask_img/000000014335.png,experiment,p,p,386.5266364000272
V3,18,22,Female,Right,89,Block 1,0.8836896000429988,0.1,true,bus,bus,occlusion,high,mask,partial viewing,many small,Stimulus\all_stim\occlusion\partialviewing\manysmall\high\manysmall_partialViewing_high_bus1.png,mask_img/000000046676.png,experiment,o,o,388.5026428999845
V3,18,22,Female,Right,90,Block 1,0.7514912999467924,0.05,true,building,building,occlusion,high,mask,partial viewing,few large,Stimulus\all_stim\occlusion\partialviewing\fewlarge\high\fewlarge_partialViewing_high_building7.png,mask_img/000000015155.png,experiment,p,p,390.1825290999841
V3,18,22,Female,Right,91,Block 1,0.6408207000931725,0.05,true,building,building,occlusion,control,mask,partial viewing,few large,Stimulus\all_stim\occlusion\partialviewing\fewlarge\control\fewlarge_partialViewing_control_building5.png,mask_img/000000004642.png,experiment,p,p,391.56186470005196
V3,18,22,Female,Right,92,Block 1,0.7318361999932677,0.05,true,bus,bus,occlusion,high,mask,partial viewing,many small,Stimulus\all_stim\occlusion\partialviewing\manysmall\high\manysmall_partialViewing_high_bus7.png,mask_img/000000047471.png,experiment,o,o,393.09448850003537
V3,18,22,Female,Right,93,Block 1,0.9277865999611095,0.05,true,banana,banana,occlusion,control,mask,partial viewing,many small,Stimulus\all_stim\occlusion\partialviewing\manysmall\control\manysmall_partialViewing_control_banana4.png,mask_img/000000033667.png,experiment,r,r,394.84696900006384
V3,18,22,Female,Right,94,Block 1,1.1996185999596491,0.1,true,bus,bus,occlusion,control,mask,partial viewing,many small,Stimulus\all_stim\occlusion\partialviewing\manysmall\control\manysmall_partialViewing_control_bus2.png,mask_img/000000036622.png,experiment,o,o,397.09509760001674
V3,18,22,Female,Right,95,Block 1,0.9888088000006974,0.1,true,firehydrant,firehydrant,occlusion,high,mask,partial viewing,many small,Stimulus\all_stim\occlusion\partialviewing\manysmall\high\manysmall_partialViewing_high_firehydrant4.png,mask_img/000000050412.png,experiment,u,u,399.1985244000098
V3,18,22,Female,Right,96,Block 1,1.2179811000823975,0.05,false,banana,bus,occlusion,high,mask,partial viewing,many small,Stimulus\all_stim\occlusion\partialviewing\manysmall\high\manysmall_partialViewing_high_banana1.png,mask_img/000000041962.png,experiment,o,r,401.2306538000703
V3,18,22,Female,Right,97,Block 1,0.9469417999498546,0.1,true,tree,tree,occlusion,control,mask,partial viewing,few large,Stimulus\all_stim\occlusion\partialviewing\fewlarge\control\fewlarge_partialViewing_control_tree6.png,mask_img/000000011328.png,experiment,i,i,403.13492950005457
V3,18,22,Female,Right,98,Block 1,0.9790372001007199,0.025,true,building,building,occlusion,low,mask,partial viewing,many small,Stimulus\all_stim\occlusion\partialviewing\manysmall\low\manysmall_partialViewing_low_building6.png,mask_img/000000057979.png,experiment,p,p,405.0787447000621
V3,18,22,Female,Right,99,Block 1,1.0460502000059932,0.025,true,building,building,occlusion,high,mask,partial viewing,many small,Stimulus\all_stim\occlusion\partialviewing\manysmall\high\manysmall_partialViewing_high_building3.png,mask_img/000000045655.png,experiment,p,p,407.0068555000471
V3,18,22,Female,Right,100,Block 1,1.705041499924846,0.05,true,building,building,occlusion,high,mask,partial viewing,few large,Stimulus\all_stim\occlusion\partialviewing\fewlarge\high\fewlarge_partialViewing_high_building2.png,mask_img/000000014472.png,experiment,p,p,409.78345370001625
V3,18,22,Female,Right,101,Block 1,0.8424462999682873,0.1,true,firehydrant,firehydrant,occlusion,low,mask,partial viewing,many small,Stimulus\all_stim\occlusion\partialviewing\manysmall\low\manysmall_partialViewing_low_firehydrant9.png,mask_img/000000061693.png,experiment,u,u,411.5037134999875
V3,18,22,Female,Right,102,Block 1,0.8950123999966308,0.1,true,tree,tree,occlusion,control,mask,partial viewing,many small,Stimulus\all_stim\occlusion\partialviewing\manysmall\control\manysmall_partialViewing_control_tree8.png,mask_img/000000041577.png,experiment,i,i,413.2466889000498
V3,18,22,Female,Right,103,Block 1,0.8173968000337481,0.05,true,building,building,occlusion,high,mask,partial viewing,many small,Stimulus\all_stim\occlusion\partialviewing\manysmall\high\manysmall_partialViewing_high_building7.png,mask_img/000000046171.png,experiment,p,p,415.17466879996937
V3,18,22,Female,Right,104,Block 1,1.5520514000672847,0.1,true,person,person,occlusion,control,mask,partial viewing,few large,Stimulus\all_stim\occlusion\partialviewing\fewlarge\control\fewlarge_partialViewing_control_person2.png,mask_img/000000008787.png,experiment,q,q,417.43884910002816
V3,18,22,Female,Right,105,Block 1,1.085088299936615,0.1,true,building,building,occlusion,high,mask,partial viewing,few large,Stimulus\all_stim\occlusion\partialviewing\fewlarge\high\fewlarge_partialViewing_high_building4.png,mask_img/000000014592.png,experiment,p,p,419.59850730001926
V3,18,22,Female,Right,106,Block 1,0.61222250002902,0.05,true,building,building,occlusion,control,mask,partial viewing,many small,Stimulus\all_stim\occlusion\partialviewing\manysmall\control\manysmall_partialViewing_control_building8.png,mask_img/000000036091.png,experiment,p,p,420.9610298000043
V3,18,22,Female,Right,107,Block 1,0.9368163000326604,0.05,true,cat,cat,occlusion,control,mask,partial viewing,few large,Stimulus\all_stim\occlusion\partialviewing\fewlarge\control\fewlarge_partialViewing_control_cat10.png,mask_img/000000006481.png,experiment,e,e,422.9266620000126
V3,18,22,Female,Right,108,Block 1,0.786166499950923,0.025,true,bus,bus,occlusion,control,mask,partial viewing,many small,Stimulus\all_stim\occlusion\partialviewing\manysmall\control\manysmall_partialViewing_control_bus1.png,mask_img/000000036255.png,experiment,o,o,424.88645860005636
V3,18,22,Female,Right,109,Block 1,1.1238801000872627,0.025,true,banana,banana,occlusion,control,mask,partial viewing,many small,Stimulus\all_stim\occlusion\partialviewing\manysmall\control\manysmall_partialViewing_control_banana5.png,mask_img/000000033669.png,experiment,r,r,427.0945213000523
V3,18,22,Female,Right,110,Block 1,0.7196441000560299,0.1,true,building,building,occlusion,high,mask,partial viewing,many small,Stimulus\all_stim\occlusion\partialviewing\manysmall\high\manysmall_partialViewing_high_building5.png,mask_img/000000046029.png,experiment,p,p,428.6645107000368
V3,18,22,Female,Right,111,Block 1,0.9112607999704778,0.05,true,tree,tree,occlusion,low,mask,partial viewing,few large,Stimulus\all_stim\occlusion\partialviewing\fewlarge\low\fewlarge_partialViewing_low_tree4.png,mask_img/000000032364.png,experiment,i,i,430.5423800999997
V3,18,22,Female,Right,112,Block 1,0.5785332000814378,0.05,true,building,building,occlusion,low,mask,partial viewing,few large,Stimulus\all_stim\occlusion\partialviewing\fewlarge\low\fewlarge_partialViewing_low_building6.png,mask_img/000000025143.png,experiment,p,p,432.11630049999803
V3,18,22,Female,Right,113,Block 1,0.646155699971132,0.1,true,person,person,occlusion,control,mask,partial viewing,many small,Stimulus\all_stim\occlusion\partialviewing\manysmall\control\manysmall_partialViewing_control_person4.png,mask_img/000000040042.png,experiment,q,q,433.73359509999864
V3,18,22,Female,Right,114,Block 1,0.7717001000419259,0.1,true,firehydrant,firehydrant,occlusion,control,mask,partial viewing,few large,Stimulus\all_stim\occlusion\partialviewing\fewlarge\control\fewlarge_partialViewing_control_firehydrant5.png,mask_img/000000008006.png,experiment,u,u,435.3904488000553
V3,18,22,Female,Right,115,Block 1,1.3555611000629142,0.025,true,bus,bus,occlusion,low,mask,partial viewing,many small,Stimulus\all_stim\occlusion\partialviewing\manysmall\low\manysmall_partialViewing_low_bus3.png,mask_img/000000058647.png,experiment,o,o,437.81458989996463
V3,18,22,Female,Right,116,Block 1,0.794259799993597,0.1,true,building,building,occlusion,low,mask,partial viewing,few large,Stimulus\all_stim\occlusion\partialviewing\fewlarge\low\fewlarge_partialViewing_low_building5.png,mask_img/000000025034.png,experiment,p,p,439.5268641000148
V3,18,22,Female,Right,117,Block 1,0.6971437999745831,0.025,true,building,building,occlusion,high,mask,partial viewing,few large,Stimulus\all_stim\occlusion\partialviewing\fewlarge\high\fewlarge_partialViewing_high_building2.png,mask_img/000000014472.png,experiment,p,p,441.1586196999997
V3,18,22,Female,Right,118,Block 1,0.5536575000733137,0.1,false,bus,building,occlusion,high,mask,partial viewing,few large,Stimulus\all_stim\occlusion\partialviewing\fewlarge\high\fewlarge_partialViewing_high_bus10.png,mask_img/000000015733.png,experiment,p,o,442.4881278000539
V3,18,22,Female,Right,119,Block 1,0.7578696999698877,0.025,true,bus,bus,occlusion,high,mask,partial viewing,few large,Stimulus\all_stim\occlusion\partialviewing\fewlarge\high\fewlarge_partialViewing_high_bus8.png,mask_img/000000016715.png,experiment,o,o,444.39067850005813
V3,18,22,Female,Right,120,Block 1,0.8587623999919742,0.025,true,banana,banana,occlusion,low,mask,partial viewing,few large,Stimulus\all_stim\occlusion\partialviewing\fewlarge\low\fewlarge_partialViewing_low_banana2.png,mask_img/000000022983.png,experiment,r,r,446.398553899955
V3,18,22,Female,Right,121,Block 1,0.7325272000161931,0.1,true,person,person,occlusion,control,mask,partial viewing,many small,Stimulus\all_stim\occlusion\partialviewing\manysmall\control\manysmall_partialViewing_control_person3.png,mask_img/000000040008.png,experiment,q,q,448.2226448999718
V3,18,22,Female,Right,122,Block 1,1.0057615000987425,0.1,true,building,building,occlusion,high,mask,partial viewing,many small,Stimulus\all_stim\occlusion\partialviewing\manysmall\high\manysmall_partialViewing_high_building4.png,mask_img/000000046025.png,experiment,p,p,450.2307873000391
V3,18,22,Female,Right,123,Block 1,0.6882040000054985,0.1,true,person,person,occlusion,low,mask,partial viewing,few large,Stimulus\all_stim\occlusion\partialviewing\fewlarge\low\fewlarge_partialViewing_low_person6.png,mask_img/000000030267.png,experiment,q,q,451.8097542000469
V3,18,22,Female,Right,124,Block 1,0.6007537000114098,0.1,true,person,person,occlusion,low,mask,partial viewing,many small,Stimulus\all_stim\occlusion\partialviewing\manysmall\low\manysmall_partialViewing_low_person5.png,mask_img/000000062193.png,experiment,q,q,453.3434634000296
V3,18,22,Female,Right,125,Block 1,0.6829926000209525,0.025,true,bus,bus,occlusion,high,mask,partial viewing,many small,Stimulus\all_stim\occlusion\partialviewing\manysmall\high\manysmall_partialViewing_high_bus3.png,mask_img/000000047229.png,experiment,o,o,454.8389138999628
V3,18,22,Female,Right,126,Block 1,0.5802961000008509,0.05,true,building,building,occlusion,low,mask,partial viewing,few large,Stimulus\all_stim\occlusion\partialviewing\fewlarge\low\fewlarge_partialViewing_low_building5.png,mask_img/000000025034.png,experiment,p,p,456.3620030999882
V3,18,22,Female,Right,127,Block 1,0.6490240000421181,0.1,true,bus,bus,occlusion,high,mask,partial viewing,few large,Stimulus\all_stim\occlusion\partialviewing\fewlarge\high\fewlarge_partialViewing_high_bus6.png,mask_img/000000015987.png,experiment,o,o,457.7789402999915
V3,18,22,Female,Right,128,Block 1,0.7401966999750584,0.025,true,bird,bird,occlusion,low,mask,partial viewing,few large,Stimulus\all_stim\occlusion\partialviewing\fewlarge\low\fewlarge_partialViewing_low_bird7.png,mask_img/000000024403.png,experiment,w,w,459.28674780006986
V3,18,22,Female,Right,129,Block 1,0.8756976000731811,0.1,true,firehydrant,firehydrant,occlusion,low,mask,partial viewing,few large,Stimulus\all_stim\occlusion\partialviewing\fewlarge\low\fewlarge_partialViewing_low_firehydrant5.png,mask_img/000000028698.png,experiment,u,u,461.28653929999564
V3,18,22,Female,Right,130,Block 1,0.8619232999626547,0.1,true,tree,tree,occlusion,low,mask,partial viewing,many small,Stimulus\all_stim\occlusion\partialviewing\manysmall\low\manysmall_partialViewing_low_tree9.png,mask_img/000000063867.png,experiment,i,i,463.2627018999774
V3,18,22,Female,Right,131,Block 1,0.9299871999537572,0.05,true,banana,banana,occlusion,high,mask,partial viewing,few large,Stimulus\all_stim\occlusion\partialviewing\fewlarge\high\fewlarge_partialViewing_high_banana1.png,mask_img/000000011754.png,experiment,r,r,465.0548348999582
V3,18,22,Female,Right,132,Block 1,0.7782073999987915,0.1,true,firehydrant,firehydrant,occlusion,high,mask,partial viewing,many small,Stimulus\all_stim\occlusion\partialviewing\manysmall\high\manysmall_partialViewing_high_firehydrant9.png,mask_img/000000051164.png,experiment,u,u,466.62252640002407
V3,18,22,Female,Right,133,Block 1,0.9446677999803796,0.05,false,cat,tree,occlusion,high,mask,partial viewing,many small,Stimulus\all_stim\occlusion\partialviewing\manysmall\high\manysmall_partialViewing_high_cat4.png,mask_img/000000049331.png,experiment,i,e,468.5668298000237
V3,18,22,Female,Right,134,Block 1,0.7054100999375805,0.1,true,bus,bus,occlusion,control,mask,partial viewing,many small,Stimulus\all_stim\occlusion\partialviewing\manysmall\control\manysmall_partialViewing_control_bus5.png,mask_img/000000037140.png,experiment,o,o,470.2476086000679
V3,18,22,Female,Right,135,Block 1,0.8311727000400424,0.025,true,banana,banana,occlusion,high,mask,partial viewing,few large,Stimulus\all_stim\occlusion\partialviewing\fewlarge\high\fewlarge_partialViewing_high_banana10.png,mask_img/000000012178.png,experiment,r,r,471.89491330005694
V3,18,22,Female,Right,136,Block 1,0.672234799945727,0.025,true,bus,bus,occlusion,high,mask,partial viewing,many small,Stimulus\all_stim\occlusion\partialviewing\manysmall\high\manysmall_partialViewing_high_bus8.png,mask_img/000000048169.png,experiment,o,o,473.6857598000206
V3,18,22,Female,Right,137,Block 1,1.5154193999478593,0.1,true,banana,banana,occlusion,control,mask,partial viewing,few large,Stimulus\all_stim\occlusion\partialviewing\fewlarge\control\fewlarge_partialViewing_control_banana2.png,mask_img/000000000312.png,experiment,r,r,476.39873470005114
V3,18,22,Female,Right,138,Block 1,0.6568948000203818,0.1,true,banana,banana,occlusion,control,mask,partial viewing,few large,Stimulus\all_stim\occlusion\partialviewing\fewlarge\control\fewlarge_partialViewing_control_banana1.png,mask_img/000000000042.png,experiment,r,r,477.8893859999953
V3,18,22,Female,Right,139,Block 1,0.6978974998928607,0.1,true,bus,bus,occlusion,low,mask,partial viewing,many small,Stimulus\all_stim\occlusion\partialviewing\manysmall\low\manysmall_partialViewing_low_bus1.png,mask_img/000000058232.png,experiment,o,o,479.3272362999851
V3,18,22,Female,Right,140,Block 1,1.5252869999967515,0.1,true,building,building,occlusion,high,mask,partial viewing,many small,Stimulus\all_stim\occlusion\partialviewing\manysmall\high\manysmall_partialViewing_high_building6.png,mask_img/000000046155.png,experiment,p,p,481.76674960006494
V3,18,22,Female,Right,141,Block 1,1.0745585999684408,0.025,false,person,tree,occlusion,high,mask,partial viewing,many small,Stimulus\all_stim\occlusion\partialviewing\manysmall\high\manysmall_partialViewing_high_person9.png,mask_img/000000052619.png,experiment,i,q,483.8550514000235
V3,18,22,Female,Right,142,Block 1,0.867864100029692,0.1,true,tree,tree,occlusion,high,mask,partial viewing,few large,Stimulus\all_stim\occlusion\partialviewing\fewlarge\high\fewlarge_partialViewing_high_tree5.png,mask_img/000000022102.png,experiment,i,i,485.74233979999553
V3,18,22,Female,Right,143,Block 1,0.8322091000154614,0.025,false,cat,tree,occlusion,high,mask,partial viewing,many small,Stimulus\all_stim\occlusion\partialviewing\manysmall\high\manysmall_partialViewing_high_cat9.png,mask_img/000000049933.png,experiment,i,e,487.4970939999912
V3,18,22,Female,Right,144,Block 1,0.9356616999721155,0.1,true,firehydrant,firehydrant,occlusion,high,mask,partial viewing,few large,Stimulus\all_stim\occlusion\partialviewing\fewlarge\high\fewlarge_partialViewing_high_firehydrant6.png,mask_img/000000019134.png,experiment,u,u,530.7107251000125
V3,18,22,Female,Right,145,Block 2,0.8071963000111282,0.025,true,firehydrant,firehydrant,occlusion,high,mask,partial viewing,many small,Stimulus\all_stim\occlusion\partialviewing\manysmall\high\manysmall_partialViewing_high_firehydrant10.png,mask_img/000000050148.png,experiment,u,u,532.4228377999971
V3,18,22,Female,Right,146,Block 2,0.7852589000249282,0.025,false,bird,tree,occlusion,low,mask,partial viewing,many small,Stimulus\all_stim\occlusion\partialviewing\manysmall\low\manysmall_partialViewing_low_bird8.png,mask_img/000000056137.png,experiment,i,w,534.2145894999849
V3,18,22,Female,Right,147,Block 2,0.7047999000642449,0.05,true,person,person,occlusion,high,mask,partial viewing,few large,Stimulus\all_stim\occlusion\partialviewing\fewlarge\high\fewlarge_partialViewing_high_person8.png,mask_img/000000020570.png,experiment,q,q,536.0826391000301
V3,18,22,Female,Right,148,Block 2,0.6816032999195158,0.05,true,bus,bus,occlusion,high,mask,partial viewing,few large,Stimulus\all_stim\occlusion\partialviewing\fewlarge\high\fewlarge_partialViewing_high_bus3.png,mask_img/000000015908.png,experiment,o,o,537.6637733000098
V3,18,22,Female,Right,149,Block 2,1.433962499955669,0.1,true,tree,tree,occlusion,control,mask,partial viewing,few large,Stimulus\all_stim\occlusion\partialviewing\fewlarge\control\fewlarge_partialViewing_control_tree3.png,mask_img/000000010566.png,experiment,i,i,540.2624111999758
V3,18,22,Female,Right,150,Block 2,0.8097844000440091,0.1,true,banana,banana,occlusion,low,mask,partial viewing,many small,Stimulus\all_stim\occlusion\partialviewing\manysmall\low\manysmall_partialViewing_low_banana3.png,mask_img/000000054875.png,experiment,r,r,541.9424577000318
V3,18,22,Female,Right,151,Block 2,1.4424003000603989,0.05,true,bus,bus,occlusion,high,mask,partial viewing,many small,Stimulus\all_stim\occlusion\partialviewing\manysmall\high\manysmall_partialViewing_high_bus4.png,mask_img/000000047316.png,experiment,o,o,544.3907761999872
V3,18,22,Female,Right,152,Block 2,1.1441539999796078,0.025,true,banana,banana,occlusion,high,mask,partial viewing,many small,Stimulus\all_stim\occlusion\partialviewing\manysmall\high\manysmall_partialViewing_high_banana10.png,mask_img/000000042196.png,experiment,r,r,546.678735399968
V3,18,22,Female,Right,153,Block 2,0.8261383000062779,0.05,true,tree,tree,occlusion,low,mask,partial viewing,many small,Stimulus\all_stim\occlusion\partialviewing\manysmall\low\manysmall_partialViewing_low_tree2.png,mask_img/000000062875.png,experiment,i,i,548.4552554000402
V3,18,22,Female,Right,154,Block 2,0.5935123999370262,0.05,true,tree,tree,occlusion,high,mask,partial viewing,many small,Stimulus\all_stim\occlusion\partialviewing\manysmall\high\manysmall_partialViewing_high_tree5.png,mask_img/000000053410.png,experiment,i,i,549.773935800069
V3,18,22,Female,Right,155,Block 2,0.7448555000592023,0.025,true,banana,banana,occlusion,high,mask,partial viewing,many small,Stimulus\all_stim\occlusion\partialviewing\manysmall\high\manysmall_partialViewing_high_banana2.png,mask_img/000000042408.png,experiment,r,r,551.5987635999918
V3,18,22,Female,Right,156,Block 2,0.7679334999993443,0.1,true,cat,cat,occlusion,control,mask,partial viewing,few large,Stimulus\all_stim\occlusion\partialviewing\fewlarge\control\fewlarge_partialViewing_control_cat7.png,mask_img/000000007325.png,experiment,e,e,553.2064005000284
V3,18,22,Female,Right,157,Block 2,1.044175999937579,0.05,false,bird,tree,occlusion,high,mask,partial viewing,many small,Stimulus\all_stim\occlusion\partialviewing\manysmall\high\manysmall_partialViewing_high_bird7.png,mask_img/000000044580.png,experiment,i,w,555.3188069000607
V3,18,22,Female,Right,158,Block 2,0.6186062000924721,0.025,true,building,building,occlusion,control,mask,partial viewing,many small,Stimulus\all_stim\occlusion\partialviewing\manysmall\control\manysmall_partialViewing_control_building7.png,mask_img/000000036029.png,experiment,p,p,556.9983310999814
V3,18,22,Female,Right,159,Block 2,0.8751517999917269,0.05,true,firehydrant,firehydrant,occlusion,control,mask,partial viewing,few large,Stimulus\all_stim\occlusion\partialviewing\fewlarge\control\fewlarge_partialViewing_control_firehydrant5.png,mask_img/000000008006.png,experiment,u,u,558.7188758000266
V3,18,22,Female,Right,160,Block 2,0.6945912999799475,0.1,true,bus,bus,occlusion,control,mask,partial viewing,many small,Stimulus\all_stim\occlusion\partialviewing\manysmall\control\manysmall_partialViewing_control_bus10.png,mask_img/000000036482.png,experiment,o,o,560.4627255999949
V3,18,22,Female,Right,161,Block 2,0.7962835000362247,0.05,true,person,person,occlusion,high,mask,partial viewing,many small,Stimulus\all_stim\occlusion\partialviewing\manysmall\high\manysmall_partialViewing_high_person4.png,mask_img/000000052087.png,experiment,q,q,562.1670269999886
V3,18,22,Female,Right,162,Block 2,0.6207121000625193,0.025,true,tree,tree,occlusion,control,mask,partial viewing,many small,Stimulus\all_stim\occlusion\partialviewing\manysmall\control\manysmall_partialViewing_control_tree9.png,mask_img/000000041840.png,experiment,i,i,563.8229194000596
V3,18,22,Female,Right,163,Block 2,0.8432163000106812,0.025,true,bus,bus,occlusion,high,mask,partial viewing,many small,Stimulus\all_stim\occlusion\partialviewing\manysmall\high\manysmall_partialViewing_high_bus6.png,mask_img/000000047407.png,experiment,o,o,565.5028336000396
V3,18,22,Female,Right,164,Block 2,0.5520659000612795,0.1,true,bus,bus,occlusion,control,mask,partial viewing,few large,Stimulus\all_stim\occlusion\partialviewing\fewlarge\control\fewlarge_partialViewing_control_bus5.png,mask_img/000000005615.png,experiment,o,o,567.0159631000133
V3,18,22,Female,Right,165,Block 2,0.6305090000387281,0.1,true,firehydrant,firehydrant,occlusion,low,mask,partial viewing,few large,Stimulus\all_stim\occlusion\partialviewing\fewlarge\low\fewlarge_partialViewing_low_firehydrant10.png,mask_img/000000028367.png,experiment,u,u,568.5333641000325
V3,18,22,Female,Right,166,Block 2,1.3481080000055954,0.025,true,building,building,occlusion,low,mask,partial viewing,few large,Stimulus\all_stim\occlusion\partialviewing\fewlarge\low\fewlarge_partialViewing_low_building4.png,mask_img/000000024912.png,experiment,p,p,570.7045734999701
V3,18,22,Female,Right,167,Block 2,0.640493799932301,0.05,true,bus,bus,occlusion,low,mask,partial viewing,many small,Stimulus\all_stim\occlusion\partialviewing\manysmall\low\manysmall_partialViewing_low_bus2.png,mask_img/000000058627.png,experiment,o,o,572.0540572999744
V3,18,22,Female,Right,168,Block 2,0.848137199995108,0.05,true,banana,banana,occlusion,high,mask,partial viewing,many small,Stimulus\all_stim\occlusion\partialviewing\manysmall\high\manysmall_partialViewing_high_banana6.png,mask_img/000000042704.png,experiment,r,r,573.7827562000602
V3,18,22,Female,Right,169,Block 2,0.7713778000324965,0.05,true,firehydrant,firehydrant,occlusion,high,mask,partial viewing,few large,Stimulus\all_stim\occlusion\partialviewing\fewlarge\high\fewlarge_partialViewing_high_firehydrant4.png,mask_img/000000018882.png,experiment,u,u,575.2625209999969
V3,18,22,Female,Right,170,Block 2,1.2608384999912232,0.05,true,firehydrant,firehydrant,occlusion,low,mask,partial viewing,few large,Stimulus\all_stim\occlusion\partialviewing\fewlarge\low\fewlarge_partialViewing_low_firehydrant1.png,mask_img/000000028304.png,experiment,u,u,577.5267572000157
V3,18,22,Female,Right,171,Block 2,0.7499778000637889,0.1,true,person,person,occlusion,high,mask,partial viewing,few large,Stimulus\all_stim\occlusion\partialviewing\fewlarge\high\fewlarge_partialViewing_high_person5.png,mask_img/000000020381.png,experiment,q,q,579.3669676999561
V3,18,22,Female,Right,172,Block 2,0.6217566999839619,0.05,true,building,building,occlusion,control,mask,partial viewing,few large,Stimulus\all_stim\occlusion\partialviewing\fewlarge\control\fewlarge_partialViewing_control_building7.png,mask_img/000000004936.png,experiment,p,p,581.0561214999761
V3,18,22,Female,Right,173,Block 2,1.0510829000268131,0.05,true,bus,bus,occlusion,control,mask,partial viewing,many small,Stimulus\all_stim\occlusion\partialviewing\manysmall\control\manysmall_partialViewing_control_bus5.png,mask_img/000000037140.png,experiment,o,o,582.8784559000051
V3,18,22,Female,Right,174,Block 2,1.4543141000904143,0.05,true,bus,bus,occlusion,high,mask,partial viewing,many small,Stimulus\all_stim\occlusion\partialviewing\manysmall\high\manysmall_partialViewing_high_bus9.png,mask_img/000000048268.png,experiment,o,o,585.0786637000274
V3,18,22,Female,Right,175,Block 2,0.7090456000296399,0.05,true,bus,bus,occlusion,control,mask,partial viewing,many small,Stimulus\all_stim\occlusion\partialviewing\manysmall\control\manysmall_partialViewing_control_bus3.png,mask_img/000000036765.png,experiment,o,o,587.006625100039
V3,18,22,Female,Right,176,Block 2,0.8625603000400588,0.025,true,building,building,occlusion,high,mask,partial viewing,many small,Stimulus\all_stim\occlusion\partialviewing\manysmall\high\manysmall_partialViewing_high_building8.png,mask_img/000000046245.png,experiment,p,p,588.8469949000282
V3,18,22,Female,Right,177,Block 2,0.9095872999168932,0.1,true,tree,tree,occlusion,control,mask,partial viewing,many small,Stimulus\all_stim\occlusion\partialviewing\manysmall\control\manysmall_partialViewing_control_tree5.png,mask_img/000000041174.png,experiment,i,i,590.895146099967
V3,18,22,Female,Right,178,Block 2,1.5959346999879926,0.1,true,firehydrant,firehydrant,occlusion,high,mask,partial viewing,few large,Stimulus\all_stim\occlusion\partialviewing\fewlarge\high\fewlarge_partialViewing_high_firehydrant9.png,mask_img/000000019725.png,experiment,u,u,593.3028093000175
V3,18,22,Female,Right,179,Block 2,0.74495520000346,0.1,true,banana,banana,occlusion,low,mask,partial viewing,few large,Stimulus\all_stim\occlusion\partialviewing\fewlarge\low\fewlarge_partialViewing_low_banana1.png,mask_img/000000022545.png,experiment,r,r,594.8471411999781
V3,18,22,Female,Right,180,Block 2,0.6178780000191182,0.025,true,bus,bus,occlusion,control,mask,partial viewing,many small,Stimulus\all_stim\occlusion\partialviewing\manysmall\control\manysmall_partialViewing_control_bus2.png,mask_img/000000036622.png,experiment,o,o,596.4392541999696
V3,18,22,Female,Right,181,Block 2,0.7791727000148967,0.025,false,banana,person,occlusion,control,mask,partial viewing,few large,Stimulus\all_stim\occlusion\partialviewing\fewlarge\control\fewlarge_partialViewing_control_banana5.png,mask_img/000000000459.png,experiment,q,r,598.3344804999651
V3,18,22,Female,Right,182,Block 2,0.9848061000229791,0.1,true,cat,cat,occlusion,high,mask,partial viewing,few large,Stimulus\all_stim\occlusion\partialviewing\fewlarge\high\fewlarge_partialViewing_high_cat6.png,mask_img/000000017476.png,experiment,e,e,600.4146346000489
V3,18,22,Female,Right,183,Block 2,1.2156660000327975,0.1,true,firehydrant,firehydrant,occlusion,low,mask,partial viewing,many small,Stimulus\all_stim\occlusion\partialviewing\manysmall\low\manysmall_partialViewing_low_firehydrant6.png,mask_img/000000060647.png,experiment,u,u,602.6306042000651
V3,18,22,Female,Right,184,Block 2,1.1805628000292927,0.05,false,cat,bird,occlusion,control,mask,partial viewing,many small,Stimulus\all_stim\occlusion\partialviewing\manysmall\control\manysmall_partialViewing_control_cat8.png,mask_img/000000038817.png,experiment,w,e,604.6225646999665
V3,18,22,Female,Right,185,Block 2,0.8595444000093266,0.1,true,firehydrant,firehydrant,occlusion,high,mask,partial viewing,few large,Stimulus\all_stim\occlusion\partialviewing\fewlarge\high\fewlarge_partialViewing_high_firehydrant5.png,mask_img/000000018982.png,experiment,u,u,606.5184627999552
V3,18,22,Female,Right,186,Block 2,0.8363685000222176,0.05,true,building,building,occlusion,low,mask,partial viewing,many small,Stimulus\all_stim\occlusion\partialviewing\manysmall\low\manysmall_partialViewing_low_building2.png,mask_img/000000057551.png,experiment,p,p,608.5585808999604
V3,18,22,Female,Right,187,Block 2,0.7761429999954998,0.1,true,banana,banana,occlusion,low,mask,partial viewing,few large,Stimulus\all_stim\occlusion\partialviewing\fewlarge\low\fewlarge_partialViewing_low_banana3.png,mask_img/000000023004.png,experiment,r,r,610.4464667000575
V3,18,22,Female,Right,188,Block 2,0.9800678000319749,0.025,false,cat,tree,occlusion,low,mask,partial viewing,many small,Stimulus\all_stim\occlusion\partialviewing\manysmall\low\manysmall_partialViewing_low_cat10.png,mask_img/000000059046.png,experiment,i,e,612.5909806999844
V3,18,22,Female,Right,189,Block 2,0.9427862000884488,0.05,true,tree,tree,occlusion,low,mask,partial viewing,many small,Stimulus\all_stim\occlusion\partialviewing\manysmall\low\manysmall_partialViewing_low_tree1.png,mask_img/000000062690.png,experiment,i,i,614.5985485999845
V3,18,22,Female,Right,190,Block 2,0.9697675999486819,0.1,true,firehydrant,firehydrant,occlusion,high,mask,partial viewing,many small,Stimulus\all_stim\occlusion\partialviewing\manysmall\high\manysmall_partialViewing_high_firehydrant2.png,mask_img/000000050239.png,experiment,u,u,616.6626634000568
V3,18,22,Female,Right,191,Block 2,0.944755099946633,0.1,false,banana,cat,occlusion,high,mask,partial viewing,few large,Stimulus\all_stim\occlusion\partialviewing\fewlarge\high\fewlarge_partialViewing_high_banana8.png,mask_img/000000012733.png,experiment,e,r,618.5265002000378
V3,18,22,Female,Right,192,Block 2,0.8078494999790564,0.1,true,building,building,occlusion,low,mask,partial viewing,many small,Stimulus\all_stim\occlusion\partialviewing\manysmall\low\manysmall_partialViewing_low_building3.png,mask_img/000000057646.png,experiment,p,p,620.1746717999922
V3,18,22,Female,Right,193,Block 2,1.2036804999224842,0.05,true,person,person,occlusion,control,mask,partial viewing,many small,Stimulus\all_stim\occlusion\partialviewing\manysmall\control\manysmall_partialViewing_control_person7.png,mask_img/000000040399.png,experiment,q,q,622.2387975000311
V3,18,22,Female,Right,194,Block 2,0.7029690999770537,0.025,true,firehydrant,firehydrant,occlusion,high,mask,partial viewing,many small,Stimulus\all_stim\occlusion\partialviewing\manysmall\high\manysmall_partialViewing_high_firehydrant5.png,mask_img/000000050496.png,experiment,u,u,623.7264021000592
V3,18,22,Female,Right,195,Block 2,1.3469035000307485,0.05,false,bird,tree,occlusion,high,mask,partial viewing,many small,Stimulus\all_stim\occlusion\partialviewing\manysmall\high\manysmall_partialViewing_high_bird8.png,mask_img/000000044831.png,experiment,i,w,625.8146882000146
V3,18,22,Female,Right,196,Block 2,0.6964545999653637,0.05,true,firehydrant,firehydrant,occlusion,high,mask,partial viewing,many small,Stimulus\all_stim\occlusion\partialviewing\manysmall\high\manysmall_partialViewing_high_firehydrant5.png,mask_img/000000050496.png,experiment,u,u,627.5664506000467
V3,18,22,Female,Right,197,Block 2,0.8792812000028789,0.1,true,cat,cat,occlusion,control,mask,partial viewing,many small,Stimulus\all_stim\occlusion\partialviewing\manysmall\control\manysmall_partialViewing_control_cat9.png,mask_img/000000038862.png,experiment,e,e,629.4944217000157
V3,18,22,Female,Right,198,Block 2,0.8338387999683619,0.025,false,bird,tree,occlusion,high,mask,partial viewing,few large,Stimulus\all_stim\occlusion\partialviewing\fewlarge\high\fewlarge_partialViewing_high_bird1.png,mask_img/000000013061.png,experiment,i,w,631.2705618999898
V3,18,22,Female,Right,199,Block 2,0.7771010000724345,0.025,true,banana,banana,occlusion,high,mask,partial viewing,few large,Stimulus\all_stim\occlusion\partialviewing\fewlarge\high\fewlarge_partialViewing_high_banana2.png,mask_img/000000012179.png,experiment,r,r,633.1424508000491
V3,18,22,Female,Right,200,Block 2,0.8708313000388443,0.05,true,cat,cat,occlusion,low,mask,partial viewing,many small,Stimulus\all_stim\occlusion\partialviewing\manysmall\low\manysmall_partialViewing_low_cat1.png,mask_img/000000059036.png,experiment,e,e,634.8466250000056
V3,18,22,Female,Right,201,Block 2,0.6644328999100253,0.05,true,banana,banana,occlusion,high,mask,partial viewing,few large,Stimulus\all_stim\occlusion\partialviewing\fewlarge\high\fewlarge_partialViewing_high_banana2.png,mask_img/000000012179.png,experiment,r,r,636.4833688000217
V3,18,22,Female,Right,202,Block 2,0.6423122000414878,0.1,true,banana,banana,occlusion,high,mask,partial viewing,few large,Stimulus\all_stim\occlusion\partialviewing\fewlarge\high\fewlarge_partialViewing_high_banana5.png,mask_img/000000012543.png,experiment,r,r,637.8337997000199
V3,18,22,Female,Right,203,Block 2,0.7155526001006365,0.1,true,tree,tree,occlusion,low,mask,partial viewing,many small,Stimulus\all_stim\occlusion\partialviewing\manysmall\low\manysmall_partialViewing_low_tree3.png,mask_img/000000063147.png,experiment,i,i,639.559005600051
V3,18,22,Female,Right,204,Block 2,0.6946450000395998,0.05,true,firehydrant,firehydrant,occlusion,low,mask,partial viewing,few large,Stimulus\all_stim\occlusion\partialviewing\fewlarge\low\fewlarge_partialViewing_low_firehydrant3.png,mask_img/000000028518.png,experiment,u,u,640.9904860999668
V3,18,22,Female,Right,205,Block 2,0.885344999958761,0.05,true,cat,cat,occlusion,low,mask,partial viewing,few large,Stimulus\all_stim\occlusion\partialviewing\fewlarge\low\fewlarge_partialViewing_low_cat3.png,mask_img/000000027556.png,experiment,e,e,642.8784145000391
V3,18,22,Female,Right,206,Block 2,0.6672991999657825,0.05,true,person,person,occlusion,control,mask,partial viewing,few large,Stimulus\all_stim\occlusion\partialviewing\fewlarge\control\fewlarge_partialViewing_control_person3.png,mask_img/000000008920.png,experiment,q,q,644.3744066000218
V3,18,22,Female,Right,207,Block 2,0.9543917999835685,0.05,true,bus,bus,occlusion,high,mask,partial viewing,few large,Stimulus\all_stim\occlusion\partialviewing\fewlarge\high\fewlarge_partialViewing_high_bus9.png,mask_img/000000016764.png,experiment,o,o,646.3991315000458
V3,18,22,Female,Right,208,Block 2,0.689439200097695,0.025,true,banana,banana,occlusion,high,mask,partial viewing,few large,Stimulus\all_stim\occlusion\partialviewing\fewlarge\high\fewlarge_partialViewing_high_banana9.png,mask_img/000000012999.png,experiment,r,r,647.9425568999723
V3,18,22,Female,Right,209,Block 2,0.7233537000138313,0.1,true,bird,bird,occlusion,control,mask,partial viewing,many small,Stimulus\all_stim\occlusion\partialviewing\manysmall\control\manysmall_partialViewing_control_bird10.png,mask_img/000000034304.png,experiment,w,w,649.5062434000429
V3,18,22,Female,Right,210,Block 2,0.9708325000246987,0.05,true,tree,tree,occlusion,control,mask,partial viewing,many small,Stimulus\all_stim\occlusion\partialviewing\manysmall\control\manysmall_partialViewing_control_tree9.png,mask_img/000000041840.png,experiment,i,i,651.334573399974
V3,18,22,Female,Right,211,Block 2,1.366631800075993,0.05,false,bird,banana,occlusion,high,mask,partial viewing,many small,Stimulus\all_stim\occlusion\partialviewing\manysmall\high\manysmall_partialViewing_high_bird6.png,mask_img/000000044523.png,experiment,r,w,653.5504963999847
V3,18,22,Female,Right,212,Block 2,0.8104436999419704,0.025,false,building,bus,occlusion,low,mask,partial viewing,many small,Stimulus\all_stim\occlusion\partialviewing\manysmall\low\manysmall_partialViewing_low_building4.png,mask_img/000000057782.png,experiment,o,p,655.430495299981
V3,18,22,Female,Right,213,Block 2,0.708189900033176,0.05,true,bus,bus,occlusion,high,mask,partial viewing,few large,Stimulus\all_stim\occlusion\partialviewing\fewlarge\high\fewlarge_partialViewing_high_bus5.png,mask_img/000000015986.png,experiment,o,o,656.8623088999884
V3,18,22,Female,Right,214,Block 2,0.7642789999954402,0.05,true,bird,bird,occlusion,control,mask,partial viewing,many small,Stimulus\all_stim\occlusion\partialviewing\manysmall\control\manysmall_partialViewing_control_bird6.png,mask_img/000000034993.png,experiment,w,w,658.5344048000406
V3,18,22,Female,Right,215,Block 2,1.5001086000120267,0.1,true,person,person,occlusion,control,mask,partial viewing,many small,Stimulus\all_stim\occlusion\partialviewing\manysmall\control\manysmall_partialViewing_control_person9.png,mask_img/000000040771.png,experiment,q,q,660.8387865000404
V3,18,22,Female,Right,216,Block 2,0.6855512999463826,0.1,true,bus,bus,occlusion,high,mask,partial viewing,few large,Stimulus\all_stim\occlusion\partialviewing\fewlarge\high\fewlarge_partialViewing_high_bus7.png,mask_img/000000016238.png,experiment,o,o,662.5961401000386
V3,18,22,Female,Right,217,Block 2,1.0499933999963105,0.025,false,cat,tree,occlusion,low,mask,partial viewing,many small,Stimulus\all_stim\occlusion\partialviewing\manysmall\low\manysmall_partialViewing_low_cat5.png,mask_img/000000059660.png,experiment,i,e,664.3589192000218
V3,18,22,Female,Right,218,Block 2,0.6858667999040335,0.1,true,bus,bus,occlusion,low,mask,partial viewing,many small,Stimulus\all_stim\occlusion\partialviewing\manysmall\low\manysmall_partialViewing_low_bus9.png,mask_img/000000058910.png,experiment,o,o,665.9474983999971
V3,18,22,Female,Right,219,Block 2,0.9389386000111699,0.05,true,bird,bird,occlusion,high,mask,partial viewing,few large,Stimulus\all_stim\occlusion\partialviewing\fewlarge\high\fewlarge_partialViewing_high_bird7.png,mask_img/000000013949.png,experiment,w,w,667.7106730999658
V3,18,22,Female,Right,220,Block 2,0.806523900013417,0.05,true,bus,bus,occlusion,high,mask,partial viewing,many small,Stimulus\all_stim\occlusion\partialviewing\manysmall\high\manysmall_partialViewing_high_bus5.png,mask_img/000000047395.png,experiment,o,o,669.7025640000356
V3,18,22,Female,Right,221,Block 2,0.6523529998958111,0.05,true,person,person,occlusion,control,mask,partial viewing,many small,Stimulus\all_stim\occlusion\partialviewing\manysmall\control\manysmall_partialViewing_control_person9.png,mask_img/000000040771.png,experiment,q,q,671.2467334000394
V3,18,22,Female,Right,222,Block 2,0.6653126999735832,0.05,false,firehydrant,tree,occlusion,control,mask,partial viewing,few large,Stimulus\all_stim\occlusion\partialviewing\fewlarge\control\fewlarge_partialViewing_control_firehydrant8.png,mask_img/000000008193.png,experiment,i,u,672.6704411000246
V3,18,22,Female,Right,223,Block 2,0.6398865999653935,0.025,true,banana,banana,occlusion,control,mask,partial viewing,few large,Stimulus\all_stim\occlusion\partialviewing\fewlarge\control\fewlarge_partialViewing_control_banana8.png,mask_img/000000000690.png,experiment,r,r,674.1190874000313
V3,18,22,Female,Right,224,Block 2,1.0215878000017256,0.1,true,banana,banana,occlusion,high,mask,partial viewing,many small,Stimulus\all_stim\occlusion\partialviewing\manysmall\high\manysmall_partialViewing_high_banana9.png,mask_img/000000043579.png,experiment,r,r,676.2865436000284
V3,18,22,Female,Right,225,Block 2,0.8798221999313682,0.025,false,building,bus,occlusion,high,mask,partial viewing,many small,Stimulus\all_stim\occlusion\partialviewing\manysmall\high\manysmall_partialViewing_high_building4.png,mask_img/000000046025.png,experiment,o,p,677.8705976000056
V3,18,22,Female,Right,226,Block 2,0.7368766000727192,0.025,true,bird,bird,occlusion,low,mask,partial viewing,few large,Stimulus\all_stim\occlusion\partialviewing\fewlarge\low\fewlarge_partialViewing_low_bird4.png,mask_img/000000024193.png,experiment,w,w,679.6065701000625
V3,18,22,Female,Right,227,Block 2,1.2945057000033557,0.025,true,cat,cat,occlusion,low,mask,partial viewing,many small,Stimulus\all_stim\occlusion\partialviewing\manysmall\low\manysmall_partialViewing_low_cat3.png,mask_img/000000059442.png,experiment,e,e,681.7264775000513
V3,18,22,Female,Right,228,Block 2,1.025292900041677,0.1,true,bird,bird,occlusion,low,mask,partial viewing,many small,Stimulus\all_stim\occlusion\partialviewing\manysmall\low\manysmall_partialViewing_low_bird9.png,mask_img/000000056641.png,experiment,w,w,683.7986587999621
V3,18,22,Female,Right,229,Block 2,0.6718351999297738,0.025,true,bus,bus,occlusion,control,mask,partial viewing,few large,Stimulus\all_stim\occlusion\partialviewing\fewlarge\control\fewlarge_partialViewing_control_bus6.png,mask_img/000000005862.png,experiment,o,o,685.5504052999895
V3,18,22,Female,Right,230,Block 2,0.6922184999566525,0.1,true,building,building,occlusion,high,mask,partial viewing,many small,Stimulus\all_stim\occlusion\partialviewing\manysmall\high\manysmall_partialViewing_high_building2.png,mask_img/000000045306.png,experiment,p,p,687.2416132000508
V3,18,22,Female,Right,231,Block 2,0.772731399978511,0.05,false,cat,bird,occlusion,control,mask,partial viewing,few large,Stimulus\all_stim\occlusion\partialviewing\fewlarge\control\fewlarge_partialViewing_control_cat4.png,mask_img/000000006842.png,experiment,w,e,688.7106886999682
V3,18,22,Female,Right,232,Block 2,0.7914597999770194,0.025,true,firehydrant,firehydrant,occlusion,high,mask,partial viewing,few large,Stimulus\all_stim\occlusion\partialviewing\fewlarge\high\fewlarge_partialViewing_high_firehydrant2.png,mask_img/000000018743.png,experiment,u,u,690.6384738000343
V3,18,22,Female,Right,233,Block 2,0.7239325999980792,0.05,true,bus,bus,occlusion,low,mask,partial viewing,few large,Stimulus\all_stim\occlusion\partialviewing\fewlarge\low\fewlarge_partialViewing_low_bus5.png,mask_img/000000026497.png,experiment,o,o,692.1584322999697
V3,18,22,Female,Right,234,Block 2,0.9237651000730693,0.1,true,tree,tree,occlusion,low,mask,partial viewing,many small,Stimulus\all_stim\occlusion\partialviewing\manysmall\low\manysmall_partialViewing_low_tree4.png,mask_img/000000063337.png,experiment,i,i,693.8462843999732
V3,18,22,Female,Right,235,Block 2,0.7346181999891996,0.1,true,building,building,occlusion,low,mask,partial viewing,few large,Stimulus\all_stim\occlusion\partialviewing\fewlarge\low\fewlarge_partialViewing_low_building1.png,mask_img/000000024552.png,experiment,p,p,695.5185232000658
V3,18,22,Female,Right,236,Block 2,0.9000099999830127,0.025,true,tree,tree,occlusion,high,mask,partial viewing,few large,Stimulus\all_stim\occlusion\partialviewing\fewlarge\high\fewlarge_partialViewing_high_tree10.png,mask_img/000000021419.png,experiment,i,i,697.5903747000266
V3,18,22,Female,Right,237,Block 2,0.6550131000112742,0.1,true,person,person,occlusion,high,mask,partial viewing,few large,Stimulus\all_stim\occlusion\partialviewing\fewlarge\high\fewlarge_partialViewing_high_person6.png,mask_img/000000020392.png,experiment,q,q,699.1139648000244
V3,18,22,Female,Right,238,Block 2,1.013944000005722,0.05,true,person,person,occlusion,high,mask,partial viewing,many small,Stimulus\all_stim\occlusion\partialviewing\manysmall\high\manysmall_partialViewing_high_person8.png,mask_img/000000052606.png,experiment,q,q,701.1588862000499
V3,18,22,Female,Right,239,Block 2,0.6375423000426963,0.1,true,tree,tree,occlusion,control,mask,partial viewing,few large,Stimulus\all_stim\occlusion\partialviewing\fewlarge\control\fewlarge_partialViewing_control_tree5.png,mask_img/000000010991.png,experiment,i,i,702.88265220006
V3,18,22,Female,Right,240,Block 2,0.7580304000293836,0.05,true,building,building,occlusion,high,mask,partial viewing,few large,Stimulus\all_stim\occlusion\partialviewing\fewlarge\high\fewlarge_partialViewing_high_building5.png,mask_img/000000014759.png,experiment,p,p,704.7343710999703
V3,18,22,Female,Right,241,Block 2,1.6188795000780374,0.05,true,banana,banana,occlusion,low,mask,partial viewing,few large,Stimulus\all_stim\occlusion\partialviewing\fewlarge\low\fewlarge_partialViewing_low_banana4.png,mask_img/000000023015.png,experiment,r,r,707.3104757000692
V3,18,22,Female,Right,242,Block 2,0.8911110999761149,0.025,true,cat,cat,occlusion,control,mask,partial viewing,few large,Stimulus\all_stim\occlusion\partialviewing\fewlarge\control\fewlarge_partialViewing_control_cat1.png,mask_img/000000006437.png,experiment,e,e,709.3024927000515
V3,18,22,Female,Right,243,Block 2,0.8857335000066087,0.025,true,firehydrant,firehydrant,occlusion,high,mask,partial viewing,many small,Stimulus\all_stim\occlusion\partialviewing\manysmall\high\manysmall_partialViewing_high_firehydrant8.png,mask_img/000000050794.png,experiment,u,u,711.3184055000311
V3,18,22,Female,Right,244,Block 2,0.7150008999742568,0.1,true,person,person,occlusion,low,mask,partial viewing,many small,Stimulus\all_stim\occlusion\partialviewing\manysmall\low\manysmall_partialViewing_low_person1.png,mask_img/000000061780.png,experiment,q,q,713.0623153999913
V3,18,22,Female,Right,245,Block 2,0.7821817999938503,0.1,true,bird,bird,occlusion,high,mask,partial viewing,many small,Stimulus\all_stim\occlusion\partialviewing\manysmall\high\manysmall_partialViewing_high_bird8.png,mask_img/000000044831.png,experiment,w,w,714.6062738000182
V3,18,22,Female,Right,246,Block 2,0.6242407000390813,0.05,true,person,person,occlusion,high,mask,partial viewing,many small,Stimulus\all_stim\occlusion\partialviewing\manysmall\high\manysmall_partialViewing_high_person3.png,mask_img/000000051880.png,experiment,q,q,715.9874657000182
V3,18,22,Female,Right,247,Block 2,0.7458514999598265,0.025,true,banana,banana,occlusion,low,mask,partial viewing,few large,Stimulus\all_stim\occlusion\partialviewing\fewlarge\low\fewlarge_partialViewing_low_banana1.png,mask_img/000000022545.png,experiment,r,r,717.72666689998
V3,18,22,Female,Right,248,Block 2,0.7926370999775827,0.025,true,person,person,occlusion,low,mask,partial viewing,many small,Stimulus\all_stim\occlusion\partialviewing\manysmall\low\manysmall_partialViewing_low_person3.png,mask_img/000000062128.png,experiment,q,q,719.446391500067
V3,18,22,Female,Right,249,Block 2,0.5954241999424994,0.025,true,building,building,occlusion,low,mask,partial viewing,few large,Stimulus\all_stim\occlusion\partialviewing\fewlarge\low\fewlarge_partialViewing_low_building7.png,mask_img/000000025192.png,experiment,p,p,720.9917593999999
V3,18,22,Female,Right,250,Block 2,0.7854187999619171,0.025,true,bus,bus,occlusion,low,mask,partial viewing,many small,Stimulus\all_stim\occlusion\partialviewing\manysmall\low\manysmall_partialViewing_low_bus2.png,mask_img/000000058627.png,experiment,o,o,722.5985953999916
V3,18,22,Female,Right,251,Block 2,0.6482634000713006,0.025,true,tree,tree,occlusion,high,mask,partial viewing,many small,Stimulus\all_stim\occlusion\partialviewing\manysmall\high\manysmall_partialViewing_high_tree3.png,mask_img/000000052936.png,experiment,i,i,724.3344786000671
V3,18,22,Female,Right,252,Block 2,0.8700096999527887,0.05,true,bird,bird,occlusion,control,mask,partial viewing,few large,Stimulus\all_stim\occlusion\partialviewing\fewlarge\control\fewlarge_partialViewing_control_bird3.png,mask_img/000000001810.png,experiment,w,w,726.3744024999905
V3,18,22,Female,Right,253,Block 2,0.7359411000506952,0.1,true,person,person,occlusion,low,mask,partial viewing,many small,Stimulus\all_stim\occlusion\partialviewing\manysmall\low\manysmall_partialViewing_low_person8.png,mask_img/000000062420.png,experiment,q,q,727.8464013000485
V3,18,22,Female,Right,254,Block 2,1.3270375999854878,0.05,true,building,building,occlusion,control,mask,partial viewing,many small,Stimulus\all_stim\occlusion\partialviewing\manysmall\control\manysmall_partialViewing_control_building10.png,mask_img/000000035857.png,experiment,p,p,730.2624847000698
V3,18,22,Female,Right,255,Block 2,0.6788879000814632,0.025,true,bird,bird,occlusion,low,mask,partial viewing,few large,Stimulus\all_stim\occlusion\partialviewing\fewlarge\low\fewlarge_partialViewing_low_bird8.png,mask_img/000000024404.png,experiment,w,w,731.7632408000063
V3,18,22,Female,Right,256,Block 2,0.7960413000546396,0.1,true,bus,bus,occlusion,control,mask,partial viewing,few large,Stimulus\all_stim\occlusion\partialviewing\fewlarge\control\fewlarge_partialViewing_control_bus6.png,mask_img/000000005862.png,experiment,o,o,733.3345121999737
V3,18,22,Female,Right,257,Block 2,1.4788130999077111,0.1,true,cat,cat,occlusion,low,mask,partial viewing,many small,Stimulus\all_stim\occlusion\partialviewing\manysmall\low\manysmall_partialViewing_low_cat2.png,mask_img/000000059201.png,experiment,e,e,735.5184616000624
V3,18,22,Female,Right,258,Block 2,1.5806690000463277,0.1,false,firehydrant,bus,occlusion,high,mask,partial viewing,many small,Stimulus\all_stim\occlusion\partialviewing\manysmall\high\manysmall_partialViewing_high_firehydrant7.png,mask_img/000000050790.png,experiment,o,u,738.1106688999571
V3,18,22,Female,Right,259,Block 2,0.8650698000565171,0.05,true,building,building,occlusion,control,mask,partial viewing,few large,Stimulus\all_stim\occlusion\partialviewing\fewlarge\control\fewlarge_partialViewing_control_building4.png,mask_img/000000004239.png,experiment,p,p,739.9344580000034
V3,18,22,Female,Right,260,Block 2,0.6200916999951005,0.025,true,person,person,occlusion,low,mask,partial viewing,few large,Stimulus\all_stim\occlusion\partialviewing\fewlarge\low\fewlarge_partialViewing_low_person6.png,mask_img/000000030267.png,experiment,q,q,741.3424578000559
V3,18,22,Female,Right,261,Block 2,0.850021299906075,0.1,true,banana,banana,occlusion,high,mask,partial viewing,few large,Stimulus\all_stim\occlusion\partialviewing\fewlarge\high\fewlarge_partialViewing_high_banana3.png,mask_img/000000012313.png,experiment,r,r,743.3108853000449
V3,18,22,Female,Right,262,Block 2,0.8606896999990568,0.05,true,tree,tree,occlusion,high,mask,partial viewing,few large,Stimulus\all_stim\occlusion\partialviewing\fewlarge\high\fewlarge_partialViewing_high_tree1.png,mask_img/000000021206.png,experiment,i,i,744.9184831000166
V3,18,22,Female,Right,263,Block 2,0.6773161999881268,0.025,true,firehydrant,firehydrant,occlusion,high,mask,partial viewing,few large,Stimulus\all_stim\occlusion\partialviewing\fewlarge\high\fewlarge_partialViewing_high_firehydrant10.png,mask_img/000000018441.png,experiment,u,u,746.6146424000617
V3,18,22,Female,Right,264,Block 2,0.7850323000457138,0.025,true,cat,cat,occlusion,high,mask,partial viewing,many small,Stimulus\all_stim\occlusion\partialviewing\manysmall\high\manysmall_partialViewing_high_cat1.png,mask_img/000000048664.png,experiment,e,e,748.286660999991
V3,18,22,Female,Right,265,Block 2,0.5862160999095067,0.05,true,building,building,occlusion,high,mask,partial viewing,many small,Stimulus\all_stim\occlusion\partialviewing\manysmall\high\manysmall_partialViewing_high_building2.png,mask_img/000000045306.png,experiment,p,p,749.7375982999802
V3,18,22,Female,Right,266,Block 2,0.7955311000114307,0.025,true,bird,bird,occlusion,high,mask,partial viewing,few large,Stimulus\all_stim\occlusion\partialviewing\fewlarge\high\fewlarge_partialViewing_high_bird10.png,mask_img/000000013127.png,experiment,w,w,751.4064413000597
V3,18,22,Female,Right,267,Block 2,0.703930199961178,0.1,true,banana,banana,occlusion,control,mask,partial viewing,many small,Stimulus\all_stim\occlusion\partialviewing\manysmall\control\manysmall_partialViewing_control_banana9.png,mask_img/000000033955.png,experiment,r,r,753.2305975999916
V3,18,22,Female,Right,268,Block 2,0.7176690000342205,0.05,true,bus,bus,occlusion,high,mask,partial viewing,many small,Stimulus\all_stim\occlusion\partialviewing\manysmall\high\manysmall_partialViewing_high_bus10.png,mask_img/000000046805.png,experiment,o,o,755.0627341000363
V3,18,22,Female,Right,269,Block 2,0.7109722000313923,0.05,true,banana,banana,occlusion,low,mask,partial viewing,many small,Stimulus\all_stim\occlusion\partialviewing\manysmall\low\manysmall_partialViewing_low_banana3.png,mask_img/000000054875.png,experiment,r,r,756.7751084000338
V3,18,22,Female,Right,270,Block 2,1.133471900015138,0.05,true,person,person,occlusion,high,mask,partial viewing,few large,Stimulus\all_stim\occlusion\partialviewing\fewlarge\high\fewlarge_partialViewing_high_person3.png,mask_img/000000020147.png,experiment,q,q,758.7104915999807
V3,18,22,Female,Right,271,Block 2,0.7194620999507606,0.025,true,cat,cat,occlusion,control,mask,partial viewing,many small,Stimulus\all_stim\occlusion\partialviewing\manysmall\control\manysmall_partialViewing_control_cat10.png,mask_img/000000038178.png,experiment,e,e,760.3505542000057
V3,18,22,Female,Right,272,Block 2,0.7964562999550253,0.1,true,bird,bird,occlusion,control,mask,partial viewing,few large,Stimulus\all_stim\occlusion\partialviewing\fewlarge\control\fewlarge_partialViewing_control_bird1.png,mask_img/000000000873.png,experiment,w,w,762.15053730004
V3,18,22,Female,Right,273,Block 2,0.6538615000899881,0.025,true,bird,bird,occlusion,low,mask,partial viewing,few large,Stimulus\all_stim\occlusion\partialviewing\fewlarge\low\fewlarge_partialViewing_low_bird6.png,mask_img/000000024247.png,experiment,w,w,763.5265652000671
V3,18,22,Female,Right,274,Block 2,0.6719634999753907,0.025,true,tree,tree,occlusion,high,mask,partial viewing,many small,Stimulus\all_stim\occlusion\partialviewing\manysmall\high\manysmall_partialViewing_high_tree5.png,mask_img/000000053410.png,experiment,i,i,765.1464173999848
V3,18,22,Female,Right,275,Block 2,0.7231956999748945,0.1,true,banana,banana,occlusion,high,mask,partial viewing,few large,Stimulus\all_stim\occlusion\partialviewing\fewlarge\high\fewlarge_partialViewing_high_banana10.png,mask_img/000000012178.png,experiment,r,r,766.646488300059
V3,18,22,Female,Right,276,Block 2,1.7935053000692278,0.05,true,bird,bird,occlusion,control,mask,partial viewing,few large,Stimulus\all_stim\occlusion\partialviewing\fewlarge\control\fewlarge_partialViewing_control_bird7.png,mask_img/000000002774.png,experiment,w,w,769.6065944000147
V3,18,22,Female,Right,277,Block 2,0.7422643000027165,0.025,false,cat,bird,occlusion,low,mask,partial viewing,many small,Stimulus\all_stim\occlusion\partialviewing\manysmall\low\manysmall_partialViewing_low_cat6.png,mask_img/000000059918.png,experiment,w,e,771.4864402000094
V3,18,22,Female,Right,278,Block 2,0.8213293000590056,0.025,false,tree,firehydrant,occlusion,control,mask,partial viewing,few large,Stimulus\all_stim\occlusion\partialviewing\fewlarge\control\fewlarge_partialViewing_control_tree2.png,mask_img/000000010560.png,experiment,u,i,773.3823687999975
V3,18,22,Female,Right,279,Block 2,2.3049213000340387,0.025,true,bus,bus,occlusion,low,mask,partial viewing,many small,Stimulus\all_stim\occlusion\partialviewing\manysmall\low\manysmall_partialViewing_low_bus10.png,mask_img/000000058595.png,experiment,o,o,776.4703631000593
V3,18,22,Female,Right,280,Block 2,0.703355300007388,0.1,true,bird,bird,occlusion,control,mask,partial viewing,few large,Stimulus\all_stim\occlusion\partialviewing\fewlarge\control\fewlarge_partialViewing_control_bird6.png,mask_img/000000002337.png,experiment,w,w,778.1583015000215
V3,18,22,Female,Right,281,Block 2,0.6816122999880463,0.025,true,bird,bird,occlusion,control,mask,partial viewing,few large,Stimulus\all_stim\occlusion\partialviewing\fewlarge\control\fewlarge_partialViewing_control_bird1.png,mask_img/000000000873.png,experiment,w,w,779.9582431999734
V3,18,22,Female,Right,282,Block 2,0.6556465999456123,0.1,true,banana,banana,occlusion,control,mask,partial viewing,many small,Stimulus\all_stim\occlusion\partialviewing\manysmall\control\manysmall_partialViewing_control_banana8.png,mask_img/000000033904.png,experiment,r,r,781.6217616000213
V3,18,22,Female,Right,283,Block 2,0.9444340999471024,0.1,true,bird,bird,occlusion,high,mask,partial viewing,many small,Stimulus\all_stim\occlusion\partialviewing\manysmall\high\manysmall_partialViewing_high_bird10.png,mask_img/000000044065.png,experiment,w,w,783.5514390000608
V3,18,22,Female,Right,284,Block 2,0.9845355999423191,0.1,true,tree,tree,occlusion,high,mask,partial viewing,few large,Stimulus\all_stim\occlusion\partialviewing\fewlarge\high\fewlarge_partialViewing_high_tree9.png,mask_img/000000022440.png,experiment,i,i,785.4543645000085
V3,18,22,Female,Right,285,Block 2,0.7371518000727519,0.1,true,firehydrant,firehydrant,occlusion,control,mask,partial viewing,many small,Stimulus\all_stim\occlusion\partialviewing\manysmall\control\manysmall_partialViewing_control_firehydrant2.png,mask_img/000000039089.png,experiment,u,u,786.9186288999626
V3,18,22,Female,Right,286,Block 2,0.7979904999956489,0.025,true,cat,cat,occlusion,control,mask,partial viewing,many small,Stimulus\all_stim\occlusion\partialviewing\manysmall\control\manysmall_partialViewing_control_cat6.png,mask_img/000000038753.png,experiment,e,e,788.8383208999876
V3,18,22,Female,Right,287,Block 2,0.9576712999260053,0.05,true,tree,tree,occlusion,low,mask,partial viewing,many small,Stimulus\all_stim\occlusion\partialviewing\manysmall\low\manysmall_partialViewing_low_tree7.png,mask_img/000000063754.png,experiment,i,i,790.8223911999958
V3,18,22,Female,Right,288,Block 2,0.6377427999395877,0.05,true,firehydrant,firehydrant,occlusion,control,mask,partial viewing,many small,Stimulus\all_stim\occlusion\partialviewing\manysmall\control\manysmall_partialViewing_control_firehydrant8.png,mask_img/000000039553.png,experiment,u,u,846.734328999999
V3,18,22,Female,Right,289,Block 3,0.5944284000433981,0.05,true,person,person,occlusion,control,mask,partial viewing,few large,Stimulus\all_stim\occlusion\partialviewing\fewlarge\control\fewlarge_partialViewing_control_person1.png,mask_img/000000008341.png,experiment,q,q,848.1037424000679
V3,18,22,Female,Right,290,Block 3,0.7682359999744222,0.025,true,bus,bus,occlusion,low,mask,partial viewing,many small,Stimulus\all_stim\occlusion\partialviewing\manysmall\low\manysmall_partialViewing_low_bus8.png,mask_img/000000058873.png,experiment,o,o,849.6543291000417
V3,18,22,Female,Right,291,Block 3,0.828225199948065,0.025,true,tree,tree,occlusion,control,mask,partial viewing,few large,Stimulus\all_stim\occlusion\partialviewing\fewlarge\control\fewlarge_partialViewing_control_tree5.png,mask_img/000000010991.png,experiment,i,i,851.5583943000529
V3,18,22,Female,Right,292,Block 3,1.0134657999733463,0.025,true,cat,cat,occlusion,control,mask,partial viewing,many small,Stimulus\all_stim\occlusion\partialviewing\manysmall\control\manysmall_partialViewing_control_cat8.png,mask_img/000000038817.png,experiment,e,e,853.654344300041
V3,18,22,Female,Right,293,Block 3,0.7239792000036687,0.025,true,tree,tree,occlusion,high,mask,partial viewing,few large,Stimulus\all_stim\occlusion\partialviewing\fewlarge\high\fewlarge_partialViewing_high_tree5.png,mask_img/000000022102.png,experiment,i,i,855.318413299974
V3,18,22,Female,Right,294,Block 3,0.634490100084804,0.025,true,tree,tree,occlusion,control,mask,partial viewing,many small,Stimulus\all_stim\occlusion\partialviewing\manysmall\control\manysmall_partialViewing_control_tree7.png,mask_img/000000041434.png,experiment,i,i,856.8864031999838
V3,18,22,Female,Right,295,Block 3,0.7718256999505684,0.025,true,firehydrant,firehydrant,occlusion,control,mask,partial viewing,few large,Stimulus\all_stim\occlusion\partialviewing\fewlarge\control\fewlarge_partialViewing_control_firehydrant7.png,mask_img/000000008053.png,experiment,u,u,858.4624409000389
V3,18,22,Female,Right,296,Block 3,0.614339700085111,0.025,true,firehydrant,firehydrant,occlusion,control,mask,partial viewing,few large,Stimulus\all_stim\occlusion\partialviewing\fewlarge\control\fewlarge_partialViewing_control_firehydrant1.png,mask_img/000000007740.png,experiment,u,u,859.8582007000223
V3,18,22,Female,Right,297,Block 3,0.7086250999709591,0.05,true,cat,cat,occlusion,control,mask,partial viewing,many small,Stimulus\all_stim\occlusion\partialviewing\manysmall\control\manysmall_partialViewing_control_cat4.png,mask_img/000000038479.png,experiment,e,e,861.6225767000578
V3,18,22,Female,Right,298,Block 3,1.3687957999063656,0.05,false,bird,banana,occlusion,high,mask,partial viewing,few large,Stimulus\all_stim\occlusion\partialviewing\fewlarge\high\fewlarge_partialViewing_high_bird3.png,mask_img/000000013455.png,experiment,r,w,863.6782554000383
V3,18,22,Female,Right,299,Block 3,0.7386931000510231,0.025,true,tree,tree,occlusion,high,mask,partial viewing,few large,Stimulus\all_stim\occlusion\partialviewing\fewlarge\high\fewlarge_partialViewing_high_tree1.png,mask_img/000000021206.png,experiment,i,i,865.2224811000051
V3,18,22,Female,Right,300,Block 3,0.7735049000475556,0.025,true,tree,tree,occlusion,control,mask,partial viewing,many small,Stimulus\all_stim\occlusion\partialviewing\manysmall\control\manysmall_partialViewing_control_tree3.png,mask_img/000000041014.png,experiment,i,i,866.9183190000476
V3,18,22,Female,Right,301,Block 3,0.6734848000342026,0.05,true,bus,bus,occlusion,control,mask,partial viewing,few large,Stimulus\all_stim\occlusion\partialviewing\fewlarge\control\fewlarge_partialViewing_control_bus4.png,mask_img/000000005574.png,experiment,o,o,868.4783385000192
V3,18,22,Female,Right,302,Block 3,0.7946345000527799,0.025,true,tree,tree,occlusion,high,mask,partial viewing,many small,Stimulus\all_stim\occlusion\partialviewing\manysmall\high\manysmall_partialViewing_high_tree4.png,mask_img/000000053143.png,experiment,i,i,869.9745392999612
V3,18,22,Female,Right,303,Block 3,0.6811472000554204,0.05,true,firehydrant,firehydrant,occlusion,control,mask,partial viewing,many small,Stimulus\all_stim\occlusion\partialviewing\manysmall\control\manysmall_partialViewing_control_firehydrant3.png,mask_img/000000039113.png,experiment,u,u,871.4945092999842
V3,18,22,Female,Right,304,Block 3,0.7164545999839902,0.1,true,bus,bus,occlusion,low,mask,partial viewing,few large,Stimulus\all_stim\occlusion\partialviewing\fewlarge\low\fewlarge_partialViewing_low_bus1.png,mask_img/000000025820.png,experiment,o,o,872.8870307999896
V3,18,22,Female,Right,305,Block 3,0.7298841999145225,0.05,true,bus,bus,occlusion,high,mask,partial viewing,few large,Stimulus\all_stim\occlusion\partialviewing\fewlarge\high\fewlarge_partialViewing_high_bus4.png,mask_img/000000015927.png,experiment,o,o,874.6863418000285
V3,18,22,Female,Right,306,Block 3,0.7630637999391183,0.1,true,building,building,occlusion,control,mask,partial viewing,many small,Stimulus\all_stim\occlusion\partialviewing\manysmall\control\manysmall_partialViewing_control_building1.png,mask_img/000000035818.png,experiment,p,p,876.6142623999622
V3,18,22,Female,Right,307,Block 3,0.631002499954775,0.1,true,building,building,occlusion,high,mask,partial viewing,many small,Stimulus\all_stim\occlusion\partialviewing\manysmall\high\manysmall_partialViewing_high_building7.png,mask_img/000000046171.png,experiment,p,p,878.0016755000688
V3,18,22,Female,Right,308,Block 3,0.8838374000042677,0.1,true,cat,cat,occlusion,high,mask,partial viewing,few large,Stimulus\all_stim\occlusion\partialviewing\fewlarge\high\fewlarge_partialViewing_high_cat9.png,mask_img/000000017858.png,experiment,e,e,879.9024728999939
V3,18,22,Female,Right,309,Block 3,1.1893893000669777,0.025,true,firehydrant,firehydrant,occlusion,low,mask,partial viewing,few large,Stimulus\all_stim\occlusion\partialviewing\fewlarge\low\fewlarge_partialViewing_low_firehydrant5.png,mask_img/000000028698.png,experiment,u,u,881.8143654000014
V3,18,22,Female,Right,310,Block 3,0.8484632999170572,0.025,true,firehydrant,firehydrant,occlusion,high,mask,partial viewing,few large,Stimulus\all_stim\occlusion\partialviewing\fewlarge\high\fewlarge_partialViewing_high_firehydrant1.png,mask_img/000000017944.png,experiment,u,u,883.7103324000491
V3,18,22,Female,Right,311,Block 3,0.7459649000084028,0.025,true,tree,tree,occlusion,low,mask,partial viewing,many small,Stimulus\all_stim\occlusion\partialviewing\manysmall\low\manysmall_partialViewing_low_tree8.png,mask_img/000000063804.png,experiment,i,i,885.4622157000704
V3,18,22,Female,Right,312,Block 3,0.8406760999932885,0.025,true,firehydrant,firehydrant,occlusion,low,mask,partial viewing,many small,Stimulus\all_stim\occlusion\partialviewing\manysmall\low\manysmall_partialViewing_low_firehydrant8.png,mask_img/000000061512.png,experiment,u,u,887.430512699997
V3,18,22,Female,Right,313,Block 3,0.7365386000601575,0.1,true,person,person,occlusion,low,mask,partial viewing,many small,Stimulus\all_stim\occlusion\partialviewing\manysmall\low\manysmall_partialViewing_low_person10.png,mask_img/000000061838.png,experiment,q,q,889.3344252000097
V3,18,22,Female,Right,314,Block 3,0.7779717999510467,0.05,true,building,building,occlusion,low,mask,partial viewing,few large,Stimulus\all_stim\occlusion\partialviewing\fewlarge\low\fewlarge_partialViewing_low_building4.png,mask_img/000000024912.png,experiment,p,p,890.7903635000112
V3,18,22,Female,Right,315,Block 3,0.7387089000549167,0.1,true,person,person,occlusion,low,mask,partial viewing,few large,Stimulus\all_stim\occlusion\partialviewing\fewlarge\low\fewlarge_partialViewing_low_person7.png,mask_img/000000030526.png,experiment,q,q,892.6704247000162
V3,18,22,Female,Right,316,Block 3,0.7581310999812558,0.1,true,bus,bus,occlusion,low,mask,partial viewing,many small,Stimulus\all_stim\occlusion\partialviewing\manysmall\low\manysmall_partialViewing_low_bus3.png,mask_img/000000058647.png,experiment,o,o,894.3584410999902
V3,18,22,Female,Right,317,Block 3,0.9415435999399051,0.025,false,cat,tree,occlusion,high,mask,partial viewing,many small,Stimulus\all_stim\occlusion\partialviewing\manysmall\high\manysmall_partialViewing_high_cat2.png,mask_img/000000049092.png,experiment,i,e,896.3342931000516
V3,18,22,Female,Right,318,Block 3,0.8108871999429539,0.05,true,person,person,occlusion,high,mask,partial viewing,many small,Stimulus\all_stim\occlusion\partialviewing\manysmall\high\manysmall_partialViewing_high_person9.png,mask_img/000000052619.png,experiment,q,q,897.9665199000156
V3,18,22,Female,Right,319,Block 3,0.6923199000302702,0.05,true,bird,bird,occlusion,high,mask,partial viewing,few large,Stimulus\all_stim\occlusion\partialviewing\fewlarge\high\fewlarge_partialViewing_high_bird9.png,mask_img/000000014175.png,experiment,w,w,899.5584308999823
V3,18,22,Female,Right,320,Block 3,1.0451155999908224,0.025,true,bus,bus,occlusion,high,mask,partial viewing,few large,Stimulus\all_stim\occlusion\partialviewing\fewlarge\high\fewlarge_partialViewing_high_bus3.png,mask_img/000000015908.png,experiment,o,o,901.7744639000157
V3,18,22,Female,Right,321,Block 3,0.896300199907273,0.1,true,bird,bird,occlusion,high,mask,partial viewing,many small,Stimulus\all_stim\occlusion\partialviewing\manysmall\high\manysmall_partialViewing_high_bird1.png,mask_img/000000043966.png,experiment,w,w,903.5102857999736
V3,18,22,Female,Right,322,Block 3,0.8644281000597402,0.025,true,cat,cat,occlusion,control,mask,partial viewing,many small,Stimulus\all_stim\occlusion\partialviewing\manysmall\control\manysmall_partialViewing_control_cat7.png,mask_img/000000038798.png,experiment,e,e,905.4144413999747
V3,18,22,Female,Right,323,Block 3,0.6734654000028968,0.05,false,tree,bus,occlusion,high,mask,partial viewing,few large,Stimulus\all_stim\occlusion\partialviewing\fewlarge\high\fewlarge_partialViewing_high_tree4.png,mask_img/000000021981.png,experiment,o,i,906.8383971999865
V3,18,22,Female,Right,324,Block 3,0.9551410999847576,0.05,true,bus,bus,occlusion,control,mask,partial viewing,many small,Stimulus\all_stim\occlusion\partialviewing\manysmall\control\manysmall_partialViewing_control_bus6.png,mask_img/000000037174.png,experiment,o,o,908.8864707000321
V3,18,22,Female,Right,325,Block 3,0.6682025999762118,0.1,true,person,person,occlusion,control,mask,partial viewing,few large,Stimulus\all_stim\occlusion\partialviewing\fewlarge\control\fewlarge_partialViewing_control_person5.png,mask_img/000000009286.png,experiment,q,q,910.4345714000519
V3,18,22,Female,Right,326,Block 3,0.7855332000181079,0.025,true,person,person,occlusion,low,mask,partial viewing,few large,Stimulus\all_stim\occlusion\partialviewing\fewlarge\low\fewlarge_partialViewing_low_person1.png,mask_img/000000029090.png,experiment,q,q,912.2145999000641
V3,18,22,Female,Right,327,Block 3,1.3078553000232205,0.05,true,building,building,occlusion,control,mask,partial viewing,many small,Stimulus\all_stim\occlusion\partialviewing\manysmall\control\manysmall_partialViewing_control_building7.png,mask_img/000000036029.png,experiment,p,p,914.534843100002
V3,18,22,Female,Right,328,Block 3,0.7818754999898374,0.05,true,bird,bird,occlusion,high,mask,partial viewing,few large,Stimulus\all_stim\occlusion\partialviewing\fewlarge\high\fewlarge_partialViewing_high_bird6.png,mask_img/000000013944.png,experiment,w,w,916.1587976999581
V3,18,22,Female,Right,329,Block 3,0.8506732999812812,0.025,true,tree,tree,occlusion,low,mask,partial viewing,few large,Stimulus\all_stim\occlusion\partialviewing\fewlarge\low\fewlarge_partialViewing_low_tree10.png,mask_img/000000031454.png,experiment,i,i,917.8225739999907
V3,18,22,Female,Right,330,Block 3,0.8482974999351427,0.025,true,firehydrant,firehydrant,occlusion,low,mask,partial viewing,many small,Stimulus\all_stim\occlusion\partialviewing\manysmall\low\manysmall_partialViewing_low_firehydrant7.png,mask_img/000000061084.png,experiment,u,u,919.6383450999856
V3,18,22,Female,Right,331,Block 3,1.0013975999318063,0.05,true,building,building,occlusion,high,mask,partial viewing,many small,Stimulus\all_stim\occlusion\partialviewing\manysmall\high\manysmall_partialViewing_high_building6.png,mask_img/000000046155.png,experiment,p,p,921.5906901999842
V3,18,22,Female,Right,332,Block 3,0.7544037000043318,0.025,true,building,building,occlusion,control,mask,partial viewing,few large,Stimulus\all_stim\occlusion\partialviewing\fewlarge\control\fewlarge_partialViewing_control_building2.png,mask_img/000000003483.png,experiment,p,p,923.2306047000457
V3,18,22,Female,Right,333,Block 3,0.9725775000406429,0.025,false,bird,tree,occlusion,high,mask,partial viewing,many small,Stimulus\all_stim\occlusion\partialviewing\manysmall\high\manysmall_partialViewing_high_bird4.png,mask_img/000000044136.png,experiment,i,w,925.3984356999863
V3,18,22,Female,Right,334,Block 3,0.6821625001030043,0.1,true,tree,tree,occlusion,low,mask,partial viewing,few large,Stimulus\all_stim\occlusion\partialviewing\fewlarge\low\fewlarge_partialViewing_low_tree10.png,mask_img/000000031454.png,experiment,i,i,927.059673300013
V3,18,22,Female,Right,335,Block 3,0.7314078999916092,0.025,true,firehydrant,firehydrant,occlusion,low,mask,partial viewing,many small,Stimulus\all_stim\occlusion\partialviewing\manysmall\low\manysmall_partialViewing_low_firehydrant4.png,mask_img/000000060610.png,experiment,u,u,928.590444099973
V3,18,22,Female,Right,336,Block 3,0.6757262999890372,0.05,true,bus,bus,occlusion,low,mask,partial viewing,few large,Stimulus\all_stim\occlusion\partialviewing\fewlarge\low\fewlarge_partialViewing_low_bus7.png,mask_img/000000026720.png,experiment,o,o,930.078341400018
V3,18,22,Female,Right,337,Block 3,0.7645603000419214,0.05,false,cat,tree,occlusion,low,mask,partial viewing,many small,Stimulus\all_stim\occlusion\partialviewing\manysmall\low\manysmall_partialViewing_low_cat4.png,mask_img/000000059483.png,experiment,i,e,931.8304238000419
V3,18,22,Female,Right,338,Block 3,0.739951099967584,0.025,false,person,tree,occlusion,high,mask,partial viewing,many small,Stimulus\all_stim\occlusion\partialviewing\manysmall\high\manysmall_partialViewing_high_person7.png,mask_img/000000052562.png,experiment,i,q,933.3183396999957
V3,18,22,Female,Right,339,Block 3,0.724618099979125,0.025,true,building,building,occlusion,high,mask,partial viewing,few large,Stimulus\all_stim\occlusion\partialviewing\fewlarge\high\fewlarge_partialViewing_high_building8.png,mask_img/000000015366.png,experiment,p,p,934.8623036000645
V3,18,22,Female,Right,340,Block 3,0.6388514999998733,0.1,true,person,person,occlusion,control,mask,partial viewing,few large,Stimulus\all_stim\occlusion\partialviewing\fewlarge\control\fewlarge_partialViewing_control_person6.png,mask_img/000000009469.png,experiment,q,q,936.2643618000438
V3,18,22,Female,Right,341,Block 3,0.7468098000390455,0.1,true,bird,bird,occlusion,low,mask,partial viewing,many small,Stimulus\all_stim\occlusion\partialviewing\manysmall\low\manysmall_partialViewing_low_bird7.png,mask_img/000000056036.png,experiment,w,w,937.9745583999902
V3,18,22,Female,Right,342,Block 3,0.6436743999365717,0.05,true,bird,bird,occlusion,high,mask,partial viewing,many small,Stimulus\all_stim\occlusion\partialviewing\manysmall\high\manysmall_partialViewing_high_bird9.png,mask_img/000000044946.png,experiment,w,w,939.5152488000458
V3,18,22,Female,Right,343,Block 3,0.6401393000269309,0.1,false,banana,bird,occlusion,high,mask,partial viewing,many small,Stimulus\all_stim\occlusion\partialviewing\manysmall\high\manysmall_partialViewing_high_banana10.png,mask_img/000000042196.png,experiment,w,r,941.2662949999794
V3,18,22,Female,Right,344,Block 3,0.7658136999234557,0.05,true,banana,banana,occlusion,low,mask,partial viewing,few large,Stimulus\all_stim\occlusion\partialviewing\fewlarge\low\fewlarge_partialViewing_low_banana6.png,mask_img/000000023137.png,experiment,r,r,943.0303094000556
V3,18,22,Female,Right,345,Block 3,0.6141405999660492,0.1,true,building,building,occlusion,control,mask,partial viewing,few large,Stimulus\all_stim\occlusion\partialviewing\fewlarge\control\fewlarge_partialViewing_control_building6.png,mask_img/000000004739.png,experiment,p,p,944.6685952000553
V3,18,22,Female,Right,346,Block 3,0.6252550999633968,0.1,true,building,building,occlusion,low,mask,partial viewing,few large,Stimulus\all_stim\occlusion\partialviewing\fewlarge\low\fewlarge_partialViewing_low_building10.png,mask_img/000000024591.png,experiment,p,p,946.0188311999664
