Version,pt_num,Age,Gender,Handedness,trial_nbr,block_number,rt,soa,acc,category,choiced_category,manipulation,difficulty,mask,type_occl,size_occl,filename,mask_filename,task,pressed_key,correct_key,Experiment Duration
V3,23,24,Male,Right,1,Training,1.7241554000065662,0.05,false,bird,bus,occlusion,control,mask,partial viewing,many small,Training_Stimulus\manysmall_partialViewing_control_bird4.png,mask_img/000000004642.png,training,e,q,110.07868639999651
V3,23,24,Male,Right,2,Training,1.8990597999945749,0.05,false,bird,cat,occlusion,low,mask,partial viewing,many small,Training_Stimulus\manysmall_partialViewing_low_bird4.png,mask_img/000000006481.png,training,i,q,113.17066789997625
V3,23,24,Male,Right,3,Training,1.9198944000236224,0.025,true,person,person,occlusion,low,mask,partial viewing,few large,Training_Stimulus\fewlarge_partialViewing_low_person189.png,mask_img/000000003483.png,training,p,p,116.5185353999841
V3,23,24,Male,Right,4,Training,1.6366796999936923,0.05,true,firehydrant,firehydrant,occlusion,control,mask,partial viewing,few large,Training_Stimulus\fewlarge_partialViewing_control_firehydrant90.png,mask_img/000000000459.png,training,r,r,119.37327009998262
V3,23,24,Male,Right,5,Training,1.199450899992371,0.1,true,bird,bird,occlusion,control,mask,partial viewing,few large,Training_Stimulus\fewlarge_partialViewing_control_bird4.png,mask_img/000000000109.png,training,q,q,122.09788709998247
V3,23,24,Male,Right,6,Training,1.2750427999999374,0.025,true,firehydrant,firehydrant,occlusion,control,mask,partial viewing,many small,Training_Stimulus\manysmall_partialViewing_control_firehydrant90.png,mask_img/000000005131.png,training,r,r,124.54652509998414
V3,23,24,Male,Right,7,Training,1.1350684000062756,0.1,true,person,person,occlusion,control,mask,partial viewing,many small,Training_Stimulus\manysmall_partialViewing_control_person189.png,mask_img/000000005142.png,training,p,p,126.92076109998743
V3,23,24,Male,Right,8,Training,2.0377117000170983,0.025,false,cat,bird,occlusion,low,mask,partial viewing,few large,Training_Stimulus\fewlarge_partialViewing_low_cat432.png,mask_img/000000003084.png,training,q,i,130.27626240000245
V3,23,24,Male,Right,9,Training,0.8688951000222005,0.05,true,person,person,occlusion,control,mask,partial viewing,many small,Training_Stimulus\manysmall_partialViewing_control_person189.png,mask_img/000000005142.png,training,p,p,132.55198319998453
V3,23,24,Male,Right,10,Training,0.8835222999914549,0.05,true,bird,bird,occlusion,control,mask,partial viewing,few large,Training_Stimulus\fewlarge_partialViewing_control_bird4.png,mask_img/000000000109.png,training,q,q,134.6577166999923
V3,23,24,Male,Right,11,Training,2.987819200003287,0.025,false,cat,building,occlusion,high,mask,partial viewing,many small,Training_Stimulus\manysmall_partialViewing_high_cat432.png,mask_img/000000005862.png,training,o,i,139.00942779998877
V3,23,24,Male,Right,12,Training,2.4100770999793895,0.025,true,tree,tree,occlusion,high,mask,partial viewing,few large,Training_Stimulus\fewlarge_partialViewing_high_tree9.png,mask_img/000000002197.png,training,w,w,142.61725049998495
V3,23,24,Male,Right,13,Training,2.2850810999807436,0.1,true,building,building,occlusion,control,mask,partial viewing,few large,Training_Stimulus\fewlarge_partialViewing_control_building24.png,mask_img/000000000312.png,training,o,o,146.35204869997688
V3,23,24,Male,Right,14,Training,2.369725600001402,0.05,true,bus,bus,occlusion,high,mask,partial viewing,few large,Training_Stimulus\fewlarge_partialViewing_high_bus180.png,mask_img/000000001053.png,training,e,e,149.9624530999863
V3,23,24,Male,Right,15,Training,2.148397900018608,0.1,false,cat,building,occlusion,control,mask,partial viewing,many small,Training_Stimulus\manysmall_partialViewing_control_cat432.png,mask_img/000000005105.png,training,o,i,153.23991360000218
V3,23,24,Male,Right,16,Training,2.8241495999973267,0.1,false,banana,tree,occlusion,high,mask,partial viewing,many small,Training_Stimulus\manysmall_partialViewing_high_banana454.png,mask_img/000000005359.png,training,w,u,157.59825509999064
V3,23,24,Male,Right,17,Training,1.5656601000227965,0.1,true,tree,tree,occlusion,low,mask,partial viewing,many small,Training_Stimulus\manysmall_partialViewing_low_tree9.png,mask_img/000000007325.png,training,w,w,160.5801476999768
V3,23,24,Male,Right,18,Training,1.522228100016946,0.025,true,bus,bus,occlusion,high,mask,partial viewing,many small,Training_Stimulus\manysmall_partialViewing_high_bus180.png,mask_img/000000005615.png,training,e,e,163.42723339999793
V3,23,24,Male,Right,19,Training,0.9219718999811448,0.025,true,person,person,occlusion,control,mask,partial viewing,many small,Training_Stimulus\manysmall_partialViewing_control_person189.png,mask_img/000000005142.png,training,p,p,165.882700999995
V3,23,24,Male,Right,20,Training,1.39960809997865,0.025,true,tree,tree,occlusion,low,mask,partial viewing,many small,Training_Stimulus\manysmall_partialViewing_low_tree9.png,mask_img/000000007325.png,training,w,w,168.5705848999787
V3,23,24,Male,Right,21,Training,0.960055299976375,0.05,true,tree,tree,occlusion,low,mask,partial viewing,few large,Training_Stimulus\fewlarge_partialViewing_low_tree9.png,mask_img/000000003694.png,training,w,w,170.7185121999937
V3,23,24,Male,Right,22,Training,1.8561479999916628,0.1,true,cat,cat,occlusion,low,mask,partial viewing,many small,Training_Stimulus\manysmall_partialViewing_low_cat432.png,mask_img/000000006842.png,training,i,i,173.86199449998094
V3,23,24,Male,Right,23,Training,1.774313700007042,0.05,true,firehydrant,firehydrant,occlusion,high,mask,partial viewing,many small,Training_Stimulus\manysmall_partialViewing_high_firehydrant90.png,mask_img/000000006146.png,training,r,r,176.74687309999717
V3,23,24,Male,Right,24,Training,2.0120386000198778,0.025,true,banana,banana,occlusion,control,mask,partial viewing,many small,Training_Stimulus\manysmall_partialViewing_control_banana454.png,mask_img/000000004239.png,training,u,u,180.1621509999968
V3,23,24,Male,Right,1,Block 1,2.252489400008926,0.025,false,person,bus,occlusion,high,mask,partial viewing,few large,Stimulus\all_stim\occlusion\partialviewing\fewlarge\high\fewlarge_partialViewing_high_person3.png,mask_img/000000020147.png,experiment,e,p,193.39817739999853
V3,23,24,Male,Right,2,Block 1,1.010550200007856,0.025,true,bus,bus,occlusion,high,mask,partial viewing,few large,Stimulus\all_stim\occlusion\partialviewing\fewlarge\high\fewlarge_partialViewing_high_bus6.png,mask_img/000000015987.png,experiment,e,e,195.16633989999536
V3,23,24,Male,Right,3,Block 1,1.5422460999980103,0.05,true,cat,cat,occlusion,control,mask,partial viewing,many small,Stimulus\all_stim\occlusion\partialviewing\manysmall\control\manysmall_partialViewing_control_cat10.png,mask_img/000000038178.png,experiment,i,i,197.5183832999901
V3,23,24,Male,Right,4,Block 1,1.6847058999992441,0.025,true,bus,bus,occlusion,low,mask,partial viewing,few large,Stimulus\all_stim\occlusion\partialviewing\fewlarge\low\fewlarge_partialViewing_low_bus4.png,mask_img/000000026053.png,experiment,e,e,199.87040620000334
V3,23,24,Male,Right,5,Block 1,2.247100299980957,0.05,true,cat,cat,occlusion,high,mask,partial viewing,few large,Stimulus\all_stim\occlusion\partialviewing\fewlarge\high\fewlarge_partialViewing_high_cat3.png,mask_img/000000017356.png,experiment,i,i,203.14216299998225
V3,23,24,Male,Right,6,Block 1,2.463903899973957,0.1,true,bus,bus,occlusion,low,mask,partial viewing,few large,Stimulus\all_stim\occlusion\partialviewing\fewlarge\low\fewlarge_partialViewing_low_bus6.png,mask_img/000000026503.png,experiment,e,e,206.5743648999778
V3,23,24,Male,Right,7,Block 1,0.996414499997627,0.05,true,bird,bird,occlusion,control,mask,partial viewing,many small,Stimulus\all_stim\occlusion\partialviewing\manysmall\control\manysmall_partialViewing_control_bird4.png,mask_img/000000034691.png,experiment,q,q,208.5260314999905
V3,23,24,Male,Right,8,Block 1,0.9689538999809884,0.05,true,bird,bird,occlusion,high,mask,partial viewing,few large,Stimulus\all_stim\occlusion\partialviewing\fewlarge\high\fewlarge_partialViewing_high_bird1.png,mask_img/000000013061.png,experiment,q,q,210.28602369999862
V3,23,24,Male,Right,9,Block 1,1.2048832000000402,0.025,true,cat,cat,occlusion,high,mask,partial viewing,many small,Stimulus\all_stim\occlusion\partialviewing\manysmall\high\manysmall_partialViewing_high_cat1.png,mask_img/000000048664.png,experiment,i,i,212.25410140000167
V3,23,24,Male,Right,10,Block 1,1.2849212000146508,0.05,true,firehydrant,firehydrant,occlusion,control,mask,partial viewing,many small,Stimulus\all_stim\occlusion\partialviewing\manysmall\control\manysmall_partialViewing_control_firehydrant4.png,mask_img/000000039141.png,experiment,r,r,214.56585869999253
V3,23,24,Male,Right,11,Block 1,1.4067691000236664,0.1,true,person,person,occlusion,high,mask,partial viewing,many small,Stimulus\all_stim\occlusion\partialviewing\manysmall\high\manysmall_partialViewing_high_person9.png,mask_img/000000052619.png,experiment,p,p,216.8624222999788
V3,23,24,Male,Right,12,Block 1,2.204470600001514,0.025,false,firehydrant,tree,occlusion,low,mask,partial viewing,many small,Stimulus\all_stim\occlusion\partialviewing\manysmall\low\manysmall_partialViewing_low_firehydrant4.png,mask_img/000000060610.png,experiment,w,r,219.91055040000356
V3,23,24,Male,Right,13,Block 1,1.3948886999860406,0.05,false,firehydrant,cat,occlusion,low,mask,partial viewing,many small,Stimulus\all_stim\occlusion\partialviewing\manysmall\low\manysmall_partialViewing_low_firehydrant1.png,mask_img/000000060464.png,experiment,i,r,221.99840429998585
V3,23,24,Male,Right,14,Block 1,1.347766099992441,0.025,true,building,building,occlusion,control,mask,partial viewing,many small,Stimulus\all_stim\occlusion\partialviewing\manysmall\control\manysmall_partialViewing_control_building9.png,mask_img/000000036226.png,experiment,o,o,224.47018059997936
V3,23,24,Male,Right,15,Block 1,1.2726032999926247,0.05,true,cat,cat,occlusion,high,mask,partial viewing,few large,Stimulus\all_stim\occlusion\partialviewing\fewlarge\high\fewlarge_partialViewing_high_cat9.png,mask_img/000000017858.png,experiment,i,i,226.51844159999746
V3,23,24,Male,Right,16,Block 1,1.0607664000126533,0.05,true,building,building,occlusion,high,mask,partial viewing,few large,Stimulus\all_stim\occlusion\partialviewing\fewlarge\high\fewlarge_partialViewing_high_building10.png,mask_img/000000014428.png,experiment,o,o,228.3259208999807
V3,23,24,Male,Right,17,Block 1,1.2114532999985386,0.025,true,tree,tree,occlusion,low,mask,partial viewing,many small,Stimulus\all_stim\occlusion\partialviewing\manysmall\low\manysmall_partialViewing_low_tree9.png,mask_img/000000063867.png,experiment,w,w,230.2141345999844
V3,23,24,Male,Right,18,Block 1,1.5093710999935865,0.025,true,bus,bus,occlusion,high,mask,partial viewing,many small,Stimulus\all_stim\occlusion\partialviewing\manysmall\high\manysmall_partialViewing_high_bus2.png,mask_img/000000046852.png,experiment,e,e,232.40639789999113
V3,23,24,Male,Right,19,Block 1,0.9203212999855168,0.025,true,tree,tree,occlusion,low,mask,partial viewing,few large,Stimulus\all_stim\occlusion\partialviewing\fewlarge\low\fewlarge_partialViewing_low_tree9.png,mask_img/000000032965.png,experiment,w,w,234.08619370000088
V3,23,24,Male,Right,20,Block 1,1.3619244000001345,0.1,true,person,person,occlusion,control,mask,partial viewing,many small,Stimulus\all_stim\occlusion\partialviewing\manysmall\control\manysmall_partialViewing_control_person7.png,mask_img/000000040399.png,experiment,p,p,236.39997050000238
V3,23,24,Male,Right,21,Block 1,1.0372058000066318,0.05,true,tree,tree,occlusion,control,mask,partial viewing,few large,Stimulus\all_stim\occlusion\partialviewing\fewlarge\control\fewlarge_partialViewing_control_tree5.png,mask_img/000000010991.png,experiment,w,w,238.48684209998464
V3,23,24,Male,Right,22,Block 1,1.1074185999750625,0.025,true,tree,tree,occlusion,low,mask,partial viewing,many small,Stimulus\all_stim\occlusion\partialviewing\manysmall\low\manysmall_partialViewing_low_tree8.png,mask_img/000000063804.png,experiment,w,w,240.41407769999932
V3,23,24,Male,Right,23,Block 1,1.1919347000075504,0.1,true,bus,bus,occlusion,control,mask,partial viewing,few large,Stimulus\all_stim\occlusion\partialviewing\fewlarge\control\fewlarge_partialViewing_control_bus9.png,mask_img/000000006263.png,experiment,e,e,242.3898891999852
V3,23,24,Male,Right,24,Block 1,0.8745545000128914,0.025,true,person,person,occlusion,control,mask,partial viewing,many small,Stimulus\all_stim\occlusion\partialviewing\manysmall\control\manysmall_partialViewing_control_person10.png,mask_img/000000039778.png,experiment,p,p,243.93450049997773
V3,23,24,Male,Right,25,Block 1,0.9767088000080548,0.025,true,cat,cat,occlusion,high,mask,partial viewing,few large,Stimulus\all_stim\occlusion\partialviewing\fewlarge\high\fewlarge_partialViewing_high_cat9.png,mask_img/000000017858.png,experiment,i,i,245.83994299999904
V3,23,24,Male,Right,26,Block 1,1.9592622999916784,0.1,true,banana,banana,occlusion,high,mask,partial viewing,few large,Stimulus\all_stim\occlusion\partialviewing\fewlarge\high\fewlarge_partialViewing_high_banana1.png,mask_img/000000011754.png,experiment,u,u,248.77389169999515
V3,23,24,Male,Right,27,Block 1,1.2259643000143114,0.025,true,building,building,occlusion,low,mask,partial viewing,few large,Stimulus\all_stim\occlusion\partialviewing\fewlarge\low\fewlarge_partialViewing_low_building9.png,mask_img/000000025516.png,experiment,o,o,251.08626979999826
V3,23,24,Male,Right,28,Block 1,0.866790400003083,0.05,true,building,building,occlusion,low,mask,partial viewing,many small,Stimulus\all_stim\occlusion\partialviewing\manysmall\low\manysmall_partialViewing_low_building8.png,mask_img/000000058073.png,experiment,o,o,252.70994030000293
V3,23,24,Male,Right,29,Block 1,1.9202478000079282,0.025,false,banana,bird,occlusion,high,mask,partial viewing,few large,Stimulus\all_stim\occlusion\partialviewing\fewlarge\high\fewlarge_partialViewing_high_banana3.png,mask_img/000000012313.png,experiment,q,u,255.69413699998404
V3,23,24,Male,Right,30,Block 1,1.1888963999808766,0.025,true,building,building,occlusion,high,mask,partial viewing,few large,Stimulus\all_stim\occlusion\partialviewing\fewlarge\high\fewlarge_partialViewing_high_building9.png,mask_img/000000015619.png,experiment,o,o,258.03034719999414
V3,23,24,Male,Right,31,Block 1,1.618715799995698,0.05,false,cat,tree,occlusion,high,mask,partial viewing,many small,Stimulus\all_stim\occlusion\partialviewing\manysmall\high\manysmall_partialViewing_high_cat10.png,mask_img/000000048929.png,experiment,w,i,260.35841809998965
V3,23,24,Male,Right,32,Block 1,0.9293367999780457,0.025,true,building,building,occlusion,low,mask,partial viewing,few large,Stimulus\all_stim\occlusion\partialviewing\fewlarge\low\fewlarge_partialViewing_low_building8.png,mask_img/000000025453.png,experiment,o,o,262.37440509998123
V3,23,24,Male,Right,33,Block 1,0.9300136000092607,0.025,true,bus,bus,occlusion,control,mask,partial viewing,many small,Stimulus\all_stim\occlusion\partialviewing\manysmall\control\manysmall_partialViewing_control_bus5.png,mask_img/000000037140.png,experiment,e,e,264.38404109998373
V3,23,24,Male,Right,34,Block 1,1.668835799995577,0.05,true,bus,bus,occlusion,low,mask,partial viewing,few large,Stimulus\all_stim\occlusion\partialviewing\fewlarge\low\fewlarge_partialViewing_low_bus6.png,mask_img/000000026503.png,experiment,e,e,267.0220397999801
V3,23,24,Male,Right,35,Block 1,1.4028821999963839,0.025,true,bird,bird,occlusion,high,mask,partial viewing,few large,Stimulus\all_stim\occlusion\partialviewing\fewlarge\high\fewlarge_partialViewing_high_bird10.png,mask_img/000000013127.png,experiment,q,q,269.2222918999905
V3,23,24,Male,Right,36,Block 1,1.4582527999882586,0.05,true,tree,tree,occlusion,control,mask,partial viewing,many small,Stimulus\all_stim\occlusion\partialviewing\manysmall\control\manysmall_partialViewing_control_tree10.png,mask_img/000000040948.png,experiment,w,w,271.70200409999234
V3,23,24,Male,Right,37,Block 1,0.9588523000129499,0.05,true,building,building,occlusion,low,mask,partial viewing,many small,Stimulus\all_stim\occlusion\partialviewing\manysmall\low\manysmall_partialViewing_low_building5.png,mask_img/000000057930.png,experiment,o,o,273.33388639998157
V3,23,24,Male,Right,38,Block 1,0.9140848999959417,0.05,true,bus,bus,occlusion,control,mask,partial viewing,few large,Stimulus\all_stim\occlusion\partialviewing\fewlarge\control\fewlarge_partialViewing_control_bus4.png,mask_img/000000005574.png,experiment,e,e,275.0061473999813
V3,23,24,Male,Right,39,Block 1,0.7773487000085879,0.1,true,person,person,occlusion,low,mask,partial viewing,few large,Stimulus\all_stim\occlusion\partialviewing\fewlarge\low\fewlarge_partialViewing_low_person1.png,mask_img/000000029090.png,experiment,p,p,276.52655139999115
V3,23,24,Male,Right,40,Block 1,0.85323690000223,0.025,true,bird,bird,occlusion,control,mask,partial viewing,many small,Stimulus\all_stim\occlusion\partialviewing\manysmall\control\manysmall_partialViewing_control_bird2.png,mask_img/000000034455.png,experiment,q,q,278.28592349999235
V3,23,24,Male,Right,41,Block 1,2.2236719999928027,0.025,true,bird,bird,occlusion,low,mask,partial viewing,many small,Stimulus\all_stim\occlusion\partialviewing\manysmall\low\manysmall_partialViewing_low_bird3.png,mask_img/000000055849.png,experiment,q,q,281.4143105999974
V3,23,24,Male,Right,42,Block 1,1.2019961000187322,0.1,false,tree,bus,occlusion,high,mask,partial viewing,many small,Stimulus\all_stim\occlusion\partialviewing\manysmall\high\manysmall_partialViewing_high_tree1.png,mask_img/000000052784.png,experiment,e,w,283.5344494000019
V3,23,24,Male,Right,43,Block 1,1.175297599984333,0.1,true,firehydrant,firehydrant,occlusion,high,mask,partial viewing,few large,Stimulus\all_stim\occlusion\partialviewing\fewlarge\high\fewlarge_partialViewing_high_firehydrant6.png,mask_img/000000019134.png,experiment,r,r,285.6061456000025
V3,23,24,Male,Right,44,Block 1,1.5763168999983463,0.025,false,bus,building,occlusion,low,mask,partial viewing,many small,Stimulus\all_stim\occlusion\partialviewing\manysmall\low\manysmall_partialViewing_low_bus9.png,mask_img/000000058910.png,experiment,o,e,287.8464536999818
V3,23,24,Male,Right,45,Block 1,1.3102572000061627,0.05,true,bird,bird,occlusion,high,mask,partial viewing,few large,Stimulus\all_stim\occlusion\partialviewing\fewlarge\high\fewlarge_partialViewing_high_bird9.png,mask_img/000000014175.png,experiment,q,q,289.846347099985
V3,23,24,Male,Right,46,Block 1,0.9375873999961186,0.1,true,banana,banana,occlusion,control,mask,partial viewing,many small,Stimulus\all_stim\occlusion\partialviewing\manysmall\control\manysmall_partialViewing_control_banana5.png,mask_img/000000033669.png,experiment,u,u,291.75026089997846
V3,23,24,Male,Right,47,Block 1,1.4304689999844413,0.025,true,bus,bus,occlusion,high,mask,partial viewing,few large,Stimulus\all_stim\occlusion\partialviewing\fewlarge\high\fewlarge_partialViewing_high_bus8.png,mask_img/000000016715.png,experiment,e,e,294.1904791999841
V3,23,24,Male,Right,48,Block 1,0.8784987000108231,0.025,true,tree,tree,occlusion,control,mask,partial viewing,few large,Stimulus\all_stim\occlusion\partialviewing\fewlarge\control\fewlarge_partialViewing_control_tree8.png,mask_img/000000011544.png,experiment,w,w,295.78996429999825
V3,23,24,Male,Right,49,Block 1,3.381097999983467,0.05,false,person,firehydrant,occlusion,low,mask,partial viewing,many small,Stimulus\all_stim\occlusion\partialviewing\manysmall\low\manysmall_partialViewing_low_person3.png,mask_img/000000062128.png,experiment,r,p,300.2699536999862
V3,23,24,Male,Right,50,Block 1,0.9782450000056997,0.05,true,tree,tree,occlusion,low,mask,partial viewing,few large,Stimulus\all_stim\occlusion\partialviewing\fewlarge\low\fewlarge_partialViewing_low_tree2.png,mask_img/000000031601.png,experiment,w,w,301.9982969999837
V3,23,24,Male,Right,51,Block 1,1.1514838000002783,0.025,true,banana,banana,occlusion,low,mask,partial viewing,many small,Stimulus\all_stim\occlusion\partialviewing\manysmall\low\manysmall_partialViewing_low_banana10.png,mask_img/000000054723.png,experiment,u,u,304.1260671999771
V3,23,24,Male,Right,52,Block 1,0.8620748000103049,0.1,true,person,person,occlusion,high,mask,partial viewing,few large,Stimulus\all_stim\occlusion\partialviewing\fewlarge\high\fewlarge_partialViewing_high_person2.png,mask_img/000000019932.png,experiment,p,p,306.1099549999926
V3,23,24,Male,Right,53,Block 1,0.9984726999828126,0.1,true,tree,tree,occlusion,low,mask,partial viewing,few large,Stimulus\all_stim\occlusion\partialviewing\fewlarge\low\fewlarge_partialViewing_low_tree2.png,mask_img/000000031601.png,experiment,w,w,308.05435439999565
V3,23,24,Male,Right,54,Block 1,0.9442045000032522,0.05,true,banana,banana,occlusion,high,mask,partial viewing,many small,Stimulus\all_stim\occlusion\partialviewing\manysmall\high\manysmall_partialViewing_high_banana2.png,mask_img/000000042408.png,experiment,u,u,309.96605109999655
V3,23,24,Male,Right,55,Block 1,0.7892591999843717,0.05,true,tree,tree,occlusion,low,mask,partial viewing,few large,Stimulus\all_stim\occlusion\partialviewing\fewlarge\low\fewlarge_partialViewing_low_tree6.png,mask_img/000000032720.png,experiment,w,w,311.8303313999786
V3,23,24,Male,Right,56,Block 1,0.9290608000010252,0.025,true,bird,bird,occlusion,high,mask,partial viewing,many small,Stimulus\all_stim\occlusion\partialviewing\manysmall\high\manysmall_partialViewing_high_bird1.png,mask_img/000000043966.png,experiment,q,q,313.59818879998056
V3,23,24,Male,Right,57,Block 1,1.0630092000064906,0.025,true,cat,cat,occlusion,control,mask,partial viewing,few large,Stimulus\all_stim\occlusion\partialviewing\fewlarge\control\fewlarge_partialViewing_control_cat4.png,mask_img/000000006842.png,experiment,i,i,315.67013729998143
V3,23,24,Male,Right,58,Block 1,0.9115775999962352,0.1,true,banana,banana,occlusion,control,mask,partial viewing,many small,Stimulus\all_stim\occlusion\partialviewing\manysmall\control\manysmall_partialViewing_control_banana10.png,mask_img/000000033074.png,experiment,u,u,317.4221060999844
V3,23,24,Male,Right,59,Block 1,0.6800250000087544,0.05,true,banana,banana,occlusion,control,mask,partial viewing,few large,Stimulus\all_stim\occlusion\partialviewing\fewlarge\control\fewlarge_partialViewing_control_banana8.png,mask_img/000000000690.png,experiment,u,u,318.8779331999831
V3,23,24,Male,Right,60,Block 1,1.899790999974357,0.05,false,banana,bird,occlusion,high,mask,partial viewing,few large,Stimulus\all_stim\occlusion\partialviewing\fewlarge\high\fewlarge_partialViewing_high_banana6.png,mask_img/000000012548.png,experiment,q,u,321.9266094999912
V3,23,24,Male,Right,61,Block 1,0.9192602000257466,0.025,true,bird,bird,occlusion,control,mask,partial viewing,many small,Stimulus\all_stim\occlusion\partialviewing\manysmall\control\manysmall_partialViewing_control_bird6.png,mask_img/000000034993.png,experiment,q,q,323.9497645999945
V3,23,24,Male,Right,62,Block 1,1.0245214000169653,0.025,true,tree,tree,occlusion,low,mask,partial viewing,many small,Stimulus\all_stim\occlusion\partialviewing\manysmall\low\manysmall_partialViewing_low_tree4.png,mask_img/000000063337.png,experiment,w,w,325.7422629999928
V3,23,24,Male,Right,63,Block 1,0.8478833000117447,0.05,true,banana,banana,occlusion,low,mask,partial viewing,few large,Stimulus\all_stim\occlusion\partialviewing\fewlarge\low\fewlarge_partialViewing_low_banana3.png,mask_img/000000023004.png,experiment,u,u,327.46256289997837
V3,23,24,Male,Right,64,Block 1,0.9526065000100061,0.1,false,cat,building,occlusion,control,mask,partial viewing,many small,Stimulus\all_stim\occlusion\partialviewing\manysmall\control\manysmall_partialViewing_control_cat10.png,mask_img/000000038178.png,experiment,o,i,329.5582044000039
V3,23,24,Male,Right,65,Block 1,0.9949669000052381,0.1,true,bird,bird,occlusion,high,mask,partial viewing,many small,Stimulus\all_stim\occlusion\partialviewing\manysmall\high\manysmall_partialViewing_high_bird8.png,mask_img/000000044831.png,experiment,q,q,331.5981622999825
V3,23,24,Male,Right,66,Block 1,0.7673745999927633,0.1,true,bird,bird,occlusion,control,mask,partial viewing,many small,Stimulus\all_stim\occlusion\partialviewing\manysmall\control\manysmall_partialViewing_control_bird7.png,mask_img/000000035132.png,experiment,q,q,333.51792569999816
V3,23,24,Male,Right,67,Block 1,0.8787657000066247,0.1,true,banana,banana,occlusion,low,mask,partial viewing,many small,Stimulus\all_stim\occlusion\partialviewing\manysmall\low\manysmall_partialViewing_low_banana8.png,mask_img/000000055630.png,experiment,u,u,335.4465157999948
V3,23,24,Male,Right,68,Block 1,0.7965729999996256,0.025,true,banana,banana,occlusion,low,mask,partial viewing,few large,Stimulus\all_stim\occlusion\partialviewing\fewlarge\low\fewlarge_partialViewing_low_banana8.png,mask_img/000000023656.png,experiment,u,u,337.2302626000019
V3,23,24,Male,Right,69,Block 1,1.8053365999949165,0.05,true,bus,bus,occlusion,high,mask,partial viewing,few large,Stimulus\all_stim\occlusion\partialviewing\fewlarge\high\fewlarge_partialViewing_high_bus2.png,mask_img/000000015862.png,experiment,e,e,339.83811529999366
V3,23,24,Male,Right,70,Block 1,0.9169009999895934,0.05,true,tree,tree,occlusion,low,mask,partial viewing,few large,Stimulus\all_stim\occlusion\partialviewing\fewlarge\low\fewlarge_partialViewing_low_tree1.png,mask_img/000000031053.png,experiment,w,w,341.65489049997996
V3,23,24,Male,Right,71,Block 1,1.1653182999871206,0.025,true,bus,bus,occlusion,low,mask,partial viewing,many small,Stimulus\all_stim\occlusion\partialviewing\manysmall\low\manysmall_partialViewing_low_bus7.png,mask_img/000000058822.png,experiment,e,e,343.5901637999923
V3,23,24,Male,Right,72,Block 1,0.7596287000051234,0.1,true,bird,bird,occlusion,control,mask,partial viewing,many small,Stimulus\all_stim\occlusion\partialviewing\manysmall\control\manysmall_partialViewing_control_bird5.png,mask_img/000000034930.png,experiment,q,q,345.4060064999794
V3,23,24,Male,Right,73,Block 1,0.7176784000184853,0.1,true,person,person,occlusion,control,mask,partial viewing,few large,Stimulus\all_stim\occlusion\partialviewing\fewlarge\control\fewlarge_partialViewing_control_person1.png,mask_img/000000008341.png,experiment,p,p,346.990055399976
V3,23,24,Male,Right,74,Block 1,0.8910244000144303,0.05,true,banana,banana,occlusion,control,mask,partial viewing,few large,Stimulus\all_stim\occlusion\partialviewing\fewlarge\control\fewlarge_partialViewing_control_banana10.png,mask_img/000000000109.png,experiment,u,u,348.8381468000007
V3,23,24,Male,Right,75,Block 1,1.9688544000091497,0.1,true,cat,cat,occlusion,low,mask,partial viewing,many small,Stimulus\all_stim\occlusion\partialviewing\manysmall\low\manysmall_partialViewing_low_cat3.png,mask_img/000000059442.png,experiment,i,i,351.8144522999937
V3,23,24,Male,Right,76,Block 1,0.887981400010176,0.1,true,cat,cat,occlusion,control,mask,partial viewing,few large,Stimulus\all_stim\occlusion\partialviewing\fewlarge\control\fewlarge_partialViewing_control_cat8.png,mask_img/000000007393.png,experiment,i,i,353.4301702999801
V3,23,24,Male,Right,77,Block 1,1.0350302000006195,0.1,true,bus,bus,occlusion,high,mask,partial viewing,few large,Stimulus\all_stim\occlusion\partialviewing\fewlarge\high\fewlarge_partialViewing_high_bus8.png,mask_img/000000016715.png,experiment,e,e,355.43041129998164
V3,23,24,Male,Right,78,Block 1,2.35221390001243,0.025,false,person,firehydrant,occlusion,high,mask,partial viewing,many small,Stimulus\all_stim\occlusion\partialviewing\manysmall\high\manysmall_partialViewing_high_person2.png,mask_img/000000051461.png,experiment,r,p,358.67101409999304
V3,23,24,Male,Right,79,Block 1,0.9635555999993812,0.025,true,tree,tree,occlusion,high,mask,partial viewing,many small,Stimulus\all_stim\occlusion\partialviewing\manysmall\high\manysmall_partialViewing_high_tree8.png,mask_img/000000054334.png,experiment,w,w,360.48641439998755
V3,23,24,Male,Right,80,Block 1,0.9482721999811474,0.025,true,firehydrant,firehydrant,occlusion,low,mask,partial viewing,few large,Stimulus\all_stim\occlusion\partialviewing\fewlarge\low\fewlarge_partialViewing_low_firehydrant5.png,mask_img/000000028698.png,experiment,r,r,362.4224565999757
V3,23,24,Male,Right,81,Block 1,0.7021615999983624,0.1,true,banana,banana,occlusion,low,mask,partial viewing,few large,Stimulus\all_stim\occlusion\partialviewing\fewlarge\low\fewlarge_partialViewing_low_banana5.png,mask_img/000000023100.png,experiment,u,u,364.1419938999752
V3,23,24,Male,Right,82,Block 1,0.7051504999981262,0.025,true,firehydrant,firehydrant,occlusion,low,mask,partial viewing,many small,Stimulus\all_stim\occlusion\partialviewing\manysmall\low\manysmall_partialViewing_low_firehydrant3.png,mask_img/000000060572.png,experiment,r,r,365.69392900000094
V3,23,24,Male,Right,83,Block 1,2.8463046999822836,0.025,false,banana,bus,occlusion,low,mask,partial viewing,few large,Stimulus\all_stim\occlusion\partialviewing\fewlarge\low\fewlarge_partialViewing_low_banana3.png,mask_img/000000023004.png,experiment,e,u,369.22217179997824
V3,23,24,Male,Right,84,Block 1,1.1570834000012837,0.025,false,firehydrant,bird,occlusion,high,mask,partial viewing,many small,Stimulus\all_stim\occlusion\partialviewing\manysmall\high\manysmall_partialViewing_high_firehydrant2.png,mask_img/000000050239.png,experiment,q,r,371.45415769997635
V3,23,24,Male,Right,85,Block 1,0.8301211000070907,0.05,true,banana,banana,occlusion,control,mask,partial viewing,many small,Stimulus\all_stim\occlusion\partialviewing\manysmall\control\manysmall_partialViewing_control_banana4.png,mask_img/000000033667.png,experiment,u,u,373.29406899999594
V3,23,24,Male,Right,86,Block 1,1.243268199992599,0.025,true,bus,bus,occlusion,low,mask,partial viewing,many small,Stimulus\all_stim\occlusion\partialviewing\manysmall\low\manysmall_partialViewing_low_bus4.png,mask_img/000000058701.png,experiment,e,e,375.63822929997696
V3,23,24,Male,Right,87,Block 1,0.8332926000002772,0.025,true,tree,tree,occlusion,low,mask,partial viewing,few large,Stimulus\all_stim\occlusion\partialviewing\fewlarge\low\fewlarge_partialViewing_low_tree3.png,mask_img/000000031717.png,experiment,w,w,377.134183999995
V3,23,24,Male,Right,88,Block 1,0.804666099982569,0.025,true,banana,banana,occlusion,control,mask,partial viewing,many small,Stimulus\all_stim\occlusion\partialviewing\manysmall\control\manysmall_partialViewing_control_banana6.png,mask_img/000000033756.png,experiment,u,u,378.89420719997725
V3,23,24,Male,Right,89,Block 1,0.7902630000025965,0.1,true,bird,bird,occlusion,control,mask,partial viewing,many small,Stimulus\all_stim\occlusion\partialviewing\manysmall\control\manysmall_partialViewing_control_bird4.png,mask_img/000000034691.png,experiment,q,q,380.3670604999934
V3,23,24,Male,Right,90,Block 1,0.8812762000015937,0.05,true,cat,cat,occlusion,control,mask,partial viewing,many small,Stimulus\all_stim\occlusion\partialviewing\manysmall\control\manysmall_partialViewing_control_cat2.png,mask_img/000000038375.png,experiment,i,i,381.9419847999816
V3,23,24,Male,Right,91,Block 1,2.145012399996631,0.1,true,tree,tree,occlusion,high,mask,partial viewing,few large,Stimulus\all_stim\occlusion\partialviewing\fewlarge\high\fewlarge_partialViewing_high_tree7.png,mask_img/000000022256.png,experiment,w,w,384.94207719998667
V3,23,24,Male,Right,92,Block 1,0.9098001999955159,0.1,false,person,banana,occlusion,high,mask,partial viewing,many small,Stimulus\all_stim\occlusion\partialviewing\manysmall\high\manysmall_partialViewing_high_person8.png,mask_img/000000052606.png,experiment,u,p,386.7984638999915
V3,23,24,Male,Right,93,Block 1,0.9751117000123486,0.1,true,tree,tree,occlusion,low,mask,partial viewing,few large,Stimulus\all_stim\occlusion\partialviewing\fewlarge\low\fewlarge_partialViewing_low_tree10.png,mask_img/000000031454.png,experiment,w,w,388.85414239999955
V3,23,24,Male,Right,94,Block 1,0.7750972000067122,0.1,true,banana,banana,occlusion,low,mask,partial viewing,few large,Stimulus\all_stim\occlusion\partialviewing\fewlarge\low\fewlarge_partialViewing_low_banana3.png,mask_img/000000023004.png,experiment,u,u,390.5261307999899
V3,23,24,Male,Right,95,Block 1,0.8094591000117362,0.1,true,person,person,occlusion,control,mask,partial viewing,many small,Stimulus\all_stim\occlusion\partialviewing\manysmall\control\manysmall_partialViewing_control_person1.png,mask_img/000000039656.png,experiment,p,p,392.1022521999839
V3,23,24,Male,Right,96,Block 1,2.806439500011038,0.05,true,cat,cat,occlusion,high,mask,partial viewing,few large,Stimulus\all_stim\occlusion\partialviewing\fewlarge\high\fewlarge_partialViewing_high_cat8.png,mask_img/000000017791.png,experiment,i,i,395.59108499999274
V3,23,24,Male,Right,97,Block 1,1.404125800007023,0.05,true,bird,bird,occlusion,low,mask,partial viewing,many small,Stimulus\all_stim\occlusion\partialviewing\manysmall\low\manysmall_partialViewing_low_bird7.png,mask_img/000000056036.png,experiment,q,q,398.0220072999946
V3,23,24,Male,Right,98,Block 1,0.8798416000208817,0.05,true,building,building,occlusion,control,mask,partial viewing,few large,Stimulus\all_stim\occlusion\partialviewing\fewlarge\control\fewlarge_partialViewing_control_building6.png,mask_img/000000004739.png,experiment,o,o,399.55803709998145
V3,23,24,Male,Right,99,Block 1,1.8567249000188895,0.025,true,bird,bird,occlusion,control,mask,partial viewing,few large,Stimulus\all_stim\occlusion\partialviewing\fewlarge\control\fewlarge_partialViewing_control_bird1.png,mask_img/000000000873.png,experiment,q,q,402.4551468999998
V3,23,24,Male,Right,100,Block 1,1.0080185999977402,0.1,true,banana,banana,occlusion,high,mask,partial viewing,few large,Stimulus\all_stim\occlusion\partialviewing\fewlarge\high\fewlarge_partialViewing_high_banana3.png,mask_img/000000012313.png,experiment,u,u,404.55058139999164
V3,23,24,Male,Right,101,Block 1,0.7805609000206459,0.1,true,bird,bird,occlusion,control,mask,partial viewing,few large,Stimulus\all_stim\occlusion\partialviewing\fewlarge\control\fewlarge_partialViewing_control_bird3.png,mask_img/000000001810.png,experiment,q,q,406.03008509997744
V3,23,24,Male,Right,102,Block 1,0.8969750000105705,0.025,true,bus,bus,occlusion,control,mask,partial viewing,few large,Stimulus\all_stim\occlusion\partialviewing\fewlarge\control\fewlarge_partialViewing_control_bus9.png,mask_img/000000006263.png,experiment,e,e,407.75799119999283
V3,23,24,Male,Right,103,Block 1,1.2773890999960713,0.1,true,bird,bird,occlusion,control,mask,partial viewing,few large,Stimulus\all_stim\occlusion\partialviewing\fewlarge\control\fewlarge_partialViewing_control_bird9.png,mask_img/000000002892.png,experiment,q,q,409.88627229997655
V3,23,24,Male,Right,104,Block 1,2.1240037999814376,0.025,true,tree,tree,occlusion,high,mask,partial viewing,few large,Stimulus\all_stim\occlusion\partialviewing\fewlarge\high\fewlarge_partialViewing_high_tree8.png,mask_img/000000022355.png,experiment,w,w,412.8070204999822
V3,23,24,Male,Right,105,Block 1,0.983258400025079,0.025,true,person,person,occlusion,low,mask,partial viewing,few large,Stimulus\all_stim\occlusion\partialviewing\fewlarge\low\fewlarge_partialViewing_low_person9.png,mask_img/000000031017.png,experiment,p,p,414.87812419998227
V3,23,24,Male,Right,106,Block 1,0.8147282999998424,0.05,true,building,building,occlusion,high,mask,partial viewing,many small,Stimulus\all_stim\occlusion\partialviewing\manysmall\high\manysmall_partialViewing_high_building1.png,mask_img/000000044950.png,experiment,o,o,416.7182772999804
V3,23,24,Male,Right,107,Block 1,1.4379994999908376,0.025,true,tree,tree,occlusion,high,mask,partial viewing,many small,Stimulus\all_stim\occlusion\partialviewing\manysmall\high\manysmall_partialViewing_high_tree2.png,mask_img/000000052901.png,experiment,w,w,419.2860156999959
V3,23,24,Male,Right,108,Block 1,0.9607846999715548,0.025,true,person,person,occlusion,high,mask,partial viewing,few large,Stimulus\all_stim\occlusion\partialviewing\fewlarge\high\fewlarge_partialViewing_high_person6.png,mask_img/000000020392.png,experiment,p,p,420.97410939997644
V3,23,24,Male,Right,109,Block 1,0.8063687999965623,0.025,true,person,person,occlusion,low,mask,partial viewing,few large,Stimulus\all_stim\occlusion\partialviewing\fewlarge\low\fewlarge_partialViewing_low_person6.png,mask_img/000000030267.png,experiment,p,p,422.8219296000025
V3,23,24,Male,Right,110,Block 1,1.3038665000058245,0.1,true,bird,bird,occlusion,high,mask,partial viewing,many small,Stimulus\all_stim\occlusion\partialviewing\manysmall\high\manysmall_partialViewing_high_bird2.png,mask_img/000000044117.png,experiment,q,q,424.8299986999773
V3,23,24,Male,Right,111,Block 1,1.0930344999942463,0.05,true,firehydrant,firehydrant,occlusion,low,mask,partial viewing,many small,Stimulus\all_stim\occlusion\partialviewing\manysmall\low\manysmall_partialViewing_low_firehydrant9.png,mask_img/000000061693.png,experiment,r,r,427.0145144999842
V3,23,24,Male,Right,112,Block 1,1.3577219000144396,0.025,false,cat,tree,occlusion,low,mask,partial viewing,many small,Stimulus\all_stim\occlusion\partialviewing\manysmall\low\manysmall_partialViewing_low_cat2.png,mask_img/000000059201.png,experiment,w,i,429.0384247000038
V3,23,24,Male,Right,113,Block 1,0.8989864999894053,0.025,true,firehydrant,firehydrant,occlusion,low,mask,partial viewing,few large,Stimulus\all_stim\occlusion\partialviewing\fewlarge\low\fewlarge_partialViewing_low_firehydrant10.png,mask_img/000000028367.png,experiment,r,r,430.6062520999985
V3,23,24,Male,Right,114,Block 1,0.8326188999926671,0.1,true,building,building,occlusion,high,mask,partial viewing,many small,Stimulus\all_stim\occlusion\partialviewing\manysmall\high\manysmall_partialViewing_high_building3.png,mask_img/000000045655.png,experiment,o,o,432.4465039999923
V3,23,24,Male,Right,115,Block 1,2.170947900012834,0.025,true,bus,bus,occlusion,high,mask,partial viewing,few large,Stimulus\all_stim\occlusion\partialviewing\fewlarge\high\fewlarge_partialViewing_high_bus5.png,mask_img/000000015986.png,experiment,e,e,435.6700048999919
V3,23,24,Male,Right,116,Block 1,0.7512476999836508,0.025,true,building,building,occlusion,control,mask,partial viewing,few large,Stimulus\all_stim\occlusion\partialviewing\fewlarge\control\fewlarge_partialViewing_control_building9.png,mask_img/000000005131.png,experiment,o,o,437.2063352999976
V3,23,24,Male,Right,117,Block 1,0.8436286000069231,0.05,true,building,building,occlusion,high,mask,partial viewing,many small,Stimulus\all_stim\occlusion\partialviewing\manysmall\high\manysmall_partialViewing_high_building7.png,mask_img/000000046171.png,experiment,o,o,438.7502645999775
V3,23,24,Male,Right,118,Block 1,0.9504658999794628,0.025,true,firehydrant,firehydrant,occlusion,low,mask,partial viewing,many small,Stimulus\all_stim\occlusion\partialviewing\manysmall\low\manysmall_partialViewing_low_firehydrant2.png,mask_img/000000060548.png,experiment,r,r,440.4705455999938
V3,23,24,Male,Right,119,Block 1,1.0143135999969672,0.05,true,cat,cat,occlusion,low,mask,partial viewing,many small,Stimulus\all_stim\occlusion\partialviewing\manysmall\low\manysmall_partialViewing_low_cat6.png,mask_img/000000059918.png,experiment,i,i,442.51830159997917
V3,23,24,Male,Right,120,Block 1,0.7844170999887865,0.025,true,firehydrant,firehydrant,occlusion,control,mask,partial viewing,many small,Stimulus\all_stim\occlusion\partialviewing\manysmall\control\manysmall_partialViewing_control_firehydrant5.png,mask_img/000000039211.png,experiment,r,r,444.3662723999878
V3,23,24,Male,Right,121,Block 1,1.7644669000001159,0.1,true,cat,cat,occlusion,high,mask,partial viewing,many small,Stimulus\all_stim\occlusion\partialviewing\manysmall\high\manysmall_partialViewing_high_cat7.png,mask_img/000000049602.png,experiment,i,i,447.20639599999413
V3,23,24,Male,Right,122,Block 1,0.8639098000130616,0.025,true,banana,banana,occlusion,control,mask,partial viewing,few large,Stimulus\all_stim\occlusion\partialviewing\fewlarge\control\fewlarge_partialViewing_control_banana6.png,mask_img/000000000595.png,experiment,u,u,448.9824228999787
V3,23,24,Male,Right,123,Block 1,1.669567700009793,0.025,true,bus,bus,occlusion,high,mask,partial viewing,many small,Stimulus\all_stim\occlusion\partialviewing\manysmall\high\manysmall_partialViewing_high_bus7.png,mask_img/000000047471.png,experiment,e,e,451.8142116999952
V3,23,24,Male,Right,124,Block 1,0.8874784999934491,0.05,true,firehydrant,firehydrant,occlusion,low,mask,partial viewing,many small,Stimulus\all_stim\occlusion\partialviewing\manysmall\low\manysmall_partialViewing_low_firehydrant10.png,mask_img/000000060529.png,experiment,r,r,453.614396399993
V3,23,24,Male,Right,125,Block 1,1.4233208000077866,0.025,false,cat,bird,occlusion,low,mask,partial viewing,many small,Stimulus\all_stim\occlusion\partialviewing\manysmall\low\manysmall_partialViewing_low_cat9.png,mask_img/000000060387.png,experiment,q,i,455.7503341999836
V3,23,24,Male,Right,126,Block 1,1.4386652999965008,0.05,false,cat,bird,occlusion,high,mask,partial viewing,many small,Stimulus\all_stim\occlusion\partialviewing\manysmall\high\manysmall_partialViewing_high_cat4.png,mask_img/000000049331.png,experiment,q,i,458.04610199999297
V3,23,24,Male,Right,127,Block 1,0.8670060999866109,0.1,true,banana,banana,occlusion,high,mask,partial viewing,many small,Stimulus\all_stim\occlusion\partialviewing\manysmall\high\manysmall_partialViewing_high_banana6.png,mask_img/000000042704.png,experiment,u,u,459.8862923999841
V3,23,24,Male,Right,128,Block 1,1.0768359000212513,0.05,true,tree,tree,occlusion,control,mask,partial viewing,few large,Stimulus\all_stim\occlusion\partialviewing\fewlarge\control\fewlarge_partialViewing_control_tree1.png,mask_img/000000010281.png,experiment,w,w,461.87799129998893
V3,23,24,Male,Right,129,Block 1,2.046791300002951,0.025,true,bird,bird,occlusion,low,mask,partial viewing,many small,Stimulus\all_stim\occlusion\partialviewing\manysmall\low\manysmall_partialViewing_low_bird9.png,mask_img/000000056641.png,experiment,q,q,465.0065118999919
V3,23,24,Male,Right,130,Block 1,0.7199502000003122,0.025,true,cat,cat,occlusion,high,mask,partial viewing,few large,Stimulus\all_stim\occlusion\partialviewing\fewlarge\high\fewlarge_partialViewing_high_cat2.png,mask_img/000000017352.png,experiment,i,i,466.73409539999557
V3,23,24,Male,Right,131,Block 1,1.2894808999844827,0.05,true,building,building,occlusion,control,mask,partial viewing,many small,Stimulus\all_stim\occlusion\partialviewing\manysmall\control\manysmall_partialViewing_control_building10.png,mask_img/000000035857.png,experiment,o,o,468.86235689997557
V3,23,24,Male,Right,132,Block 1,0.907997800008161,0.05,true,building,building,occlusion,high,mask,partial viewing,many small,Stimulus\all_stim\occlusion\partialviewing\manysmall\high\manysmall_partialViewing_high_building2.png,mask_img/000000045306.png,experiment,o,o,470.7182078999758
V3,23,24,Male,Right,133,Block 1,0.807945300010033,0.025,true,banana,banana,occlusion,low,mask,partial viewing,many small,Stimulus\all_stim\occlusion\partialviewing\manysmall\low\manysmall_partialViewing_low_banana2.png,mask_img/000000054759.png,experiment,u,u,472.35836119999294
V3,23,24,Male,Right,134,Block 1,2.620078799984185,0.025,false,bird,firehydrant,occlusion,high,mask,partial viewing,many small,Stimulus\all_stim\occlusion\partialviewing\manysmall\high\manysmall_partialViewing_high_bird6.png,mask_img/000000044523.png,experiment,r,q,475.8860191999993
V3,23,24,Male,Right,135,Block 1,1.4439239999919664,0.025,false,person,bird,occlusion,high,mask,partial viewing,many small,Stimulus\all_stim\occlusion\partialviewing\manysmall\high\manysmall_partialViewing_high_person7.png,mask_img/000000052562.png,experiment,q,p,478.06451379999635
V3,23,24,Male,Right,136,Block 1,1.0333316000178456,0.1,false,firehydrant,cat,occlusion,low,mask,partial viewing,many small,Stimulus\all_stim\occlusion\partialviewing\manysmall\low\manysmall_partialViewing_low_firehydrant1.png,mask_img/000000060464.png,experiment,i,r,480.1898791999847
V3,23,24,Male,Right,137,Block 1,0.9163980000012089,0.1,true,cat,cat,occlusion,control,mask,partial viewing,few large,Stimulus\all_stim\occlusion\partialviewing\fewlarge\control\fewlarge_partialViewing_control_cat6.png,mask_img/000000007179.png,experiment,i,i,481.846538999991
V3,23,24,Male,Right,138,Block 1,1.1458686999976635,0.05,true,bus,bus,occlusion,high,mask,partial viewing,many small,Stimulus\all_stim\occlusion\partialviewing\manysmall\high\manysmall_partialViewing_high_bus3.png,mask_img/000000047229.png,experiment,e,e,484.02240429999074
V3,23,24,Male,Right,139,Block 1,0.7953038999985438,0.025,true,person,person,occlusion,control,mask,partial viewing,many small,Stimulus\all_stim\occlusion\partialviewing\manysmall\control\manysmall_partialViewing_control_person6.png,mask_img/000000040325.png,experiment,p,p,485.7259427999961
V3,23,24,Male,Right,140,Block 1,1.2427071999991313,0.025,true,cat,cat,occlusion,control,mask,partial viewing,many small,Stimulus\all_stim\occlusion\partialviewing\manysmall\control\manysmall_partialViewing_control_cat7.png,mask_img/000000038798.png,experiment,i,i,487.6383041999943
V3,23,24,Male,Right,141,Block 1,0.6904828999831807,0.05,true,bird,bird,occlusion,control,mask,partial viewing,few large,Stimulus\all_stim\occlusion\partialviewing\fewlarge\control\fewlarge_partialViewing_control_bird8.png,mask_img/000000002822.png,experiment,q,q,489.05427520000376
V3,23,24,Male,Right,142,Block 1,1.1084733000025153,0.025,true,building,building,occlusion,low,mask,partial viewing,few large,Stimulus\all_stim\occlusion\partialviewing\fewlarge\low\fewlarge_partialViewing_low_building10.png,mask_img/000000024591.png,experiment,o,o,491.0063322999922
V3,23,24,Male,Right,143,Block 1,0.6616483999823686,0.025,true,person,person,occlusion,control,mask,partial viewing,few large,Stimulus\all_stim\occlusion\partialviewing\fewlarge\control\fewlarge_partialViewing_control_person6.png,mask_img/000000009469.png,experiment,p,p,492.67811379997875
V3,23,24,Male,Right,144,Block 1,0.6476774999755435,0.025,true,person,person,occlusion,control,mask,partial viewing,many small,Stimulus\all_stim\occlusion\partialviewing\manysmall\control\manysmall_partialViewing_control_person2.png,mask_img/000000039971.png,experiment,p,p,517.6781713999808
V3,23,24,Male,Right,145,Block 2,1.4672278999933042,0.1,true,bus,bus,occlusion,control,mask,partial viewing,few large,Stimulus\all_stim\occlusion\partialviewing\fewlarge\control\fewlarge_partialViewing_control_bus7.png,mask_img/000000006146.png,experiment,e,e,519.8226765999862
V3,23,24,Male,Right,146,Block 2,0.8019886999973096,0.1,true,building,building,occlusion,low,mask,partial viewing,few large,Stimulus\all_stim\occlusion\partialviewing\fewlarge\low\fewlarge_partialViewing_low_building9.png,mask_img/000000025516.png,experiment,o,o,521.3101498000033
V3,23,24,Male,Right,147,Block 2,0.9224356999911834,0.1,true,firehydrant,firehydrant,occlusion,control,mask,partial viewing,few large,Stimulus\all_stim\occlusion\partialviewing\fewlarge\control\fewlarge_partialViewing_control_firehydrant1.png,mask_img/000000007740.png,experiment,r,r,523.3343614999903
V3,23,24,Male,Right,148,Block 2,1.0458152000210248,0.1,true,tree,tree,occlusion,high,mask,partial viewing,many small,Stimulus\all_stim\occlusion\partialviewing\manysmall\high\manysmall_partialViewing_high_tree7.png,mask_img/000000053635.png,experiment,w,w,525.1904400999774
V3,23,24,Male,Right,149,Block 2,0.869065100006992,0.05,true,building,building,occlusion,high,mask,partial viewing,few large,Stimulus\all_stim\occlusion\partialviewing\fewlarge\high\fewlarge_partialViewing_high_building3.png,mask_img/000000014567.png,experiment,o,o,527.150209399988
V3,23,24,Male,Right,150,Block 2,1.167954300006386,0.1,true,cat,cat,occlusion,low,mask,partial viewing,few large,Stimulus\all_stim\occlusion\partialviewing\fewlarge\low\fewlarge_partialViewing_low_cat8.png,mask_img/000000028171.png,experiment,i,i,529.0783074999927
V3,23,24,Male,Right,151,Block 2,1.052705700014485,0.025,false,bird,cat,occlusion,high,mask,partial viewing,many small,Stimulus\all_stim\occlusion\partialviewing\manysmall\high\manysmall_partialViewing_high_bird10.png,mask_img/000000044065.png,experiment,i,q,531.0780455999775
V3,23,24,Male,Right,152,Block 2,0.8772336000110954,0.1,true,firehydrant,firehydrant,occlusion,low,mask,partial viewing,many small,Stimulus\all_stim\occlusion\partialviewing\manysmall\low\manysmall_partialViewing_low_firehydrant4.png,mask_img/000000060610.png,experiment,r,r,533.1100382999866
V3,23,24,Male,Right,153,Block 2,0.8557951999828219,0.05,true,tree,tree,occlusion,low,mask,partial viewing,many small,Stimulus\all_stim\occlusion\partialviewing\manysmall\low\manysmall_partialViewing_low_tree4.png,mask_img/000000063337.png,experiment,w,w,534.6300808999804
V3,23,24,Male,Right,154,Block 2,0.7711632999998983,0.05,true,tree,tree,occlusion,low,mask,partial viewing,few large,Stimulus\all_stim\occlusion\partialviewing\fewlarge\low\fewlarge_partialViewing_low_tree8.png,mask_img/000000032918.png,experiment,w,w,536.0703075999918
V3,23,24,Male,Right,155,Block 2,0.7185377999849152,0.1,true,person,person,occlusion,control,mask,partial viewing,many small,Stimulus\all_stim\occlusion\partialviewing\manysmall\control\manysmall_partialViewing_control_person3.png,mask_img/000000040008.png,experiment,p,p,537.550470599992
V3,23,24,Male,Right,156,Block 2,0.7328626000089571,0.05,true,tree,tree,occlusion,low,mask,partial viewing,many small,Stimulus\all_stim\occlusion\partialviewing\manysmall\low\manysmall_partialViewing_low_tree6.png,mask_img/000000063715.png,experiment,w,w,539.0383157999895
V3,23,24,Male,Right,157,Block 2,1.340577499999199,0.05,true,bus,bus,occlusion,high,mask,partial viewing,many small,Stimulus\all_stim\occlusion\partialviewing\manysmall\high\manysmall_partialViewing_high_bus5.png,mask_img/000000047395.png,experiment,e,e,541.1340640999842
V3,23,24,Male,Right,158,Block 2,0.8881030000047758,0.1,true,firehydrant,firehydrant,occlusion,control,mask,partial viewing,few large,Stimulus\all_stim\occlusion\partialviewing\fewlarge\control\fewlarge_partialViewing_control_firehydrant8.png,mask_img/000000008193.png,experiment,r,r,542.7502827999997
V3,23,24,Male,Right,159,Block 2,0.663311899988912,0.025,true,building,building,occlusion,control,mask,partial viewing,few large,Stimulus\all_stim\occlusion\partialviewing\fewlarge\control\fewlarge_partialViewing_control_building1.png,mask_img/000000003084.png,experiment,o,o,544.3421718000027
V3,23,24,Male,Right,160,Block 2,1.1639104000059888,0.05,true,banana,banana,occlusion,control,mask,partial viewing,few large,Stimulus\all_stim\occlusion\partialviewing\fewlarge\control\fewlarge_partialViewing_control_banana2.png,mask_img/000000000312.png,experiment,u,u,546.5343272000027
V3,23,24,Male,Right,161,Block 2,0.9336494000162929,0.05,true,banana,banana,occlusion,control,mask,partial viewing,many small,Stimulus\all_stim\occlusion\partialviewing\manysmall\control\manysmall_partialViewing_control_banana10.png,mask_img/000000033074.png,experiment,u,u,548.2864403999993
V3,23,24,Male,Right,162,Block 2,0.7082926000002772,0.1,true,firehydrant,firehydrant,occlusion,high,mask,partial viewing,few large,Stimulus\all_stim\occlusion\partialviewing\fewlarge\high\fewlarge_partialViewing_high_firehydrant3.png,mask_img/000000018864.png,experiment,r,r,549.6704044999788
V3,23,24,Male,Right,163,Block 2,0.7395003999990877,0.025,false,bus,building,occlusion,high,mask,partial viewing,few large,Stimulus\all_stim\occlusion\partialviewing\fewlarge\high\fewlarge_partialViewing_high_bus7.png,mask_img/000000016238.png,experiment,o,e,551.3422407000035
V3,23,24,Male,Right,164,Block 2,0.758998299977975,0.025,true,bird,bird,occlusion,high,mask,partial viewing,few large,Stimulus\all_stim\occlusion\partialviewing\fewlarge\high\fewlarge_partialViewing_high_bird5.png,mask_img/000000013914.png,experiment,q,q,552.8141007999948
V3,23,24,Male,Right,165,Block 2,0.7760765999846626,0.05,true,banana,banana,occlusion,high,mask,partial viewing,few large,Stimulus\all_stim\occlusion\partialviewing\fewlarge\high\fewlarge_partialViewing_high_banana5.png,mask_img/000000012543.png,experiment,u,u,554.3904274999804
V3,23,24,Male,Right,166,Block 2,1.0102270999923348,0.025,true,bus,bus,occlusion,control,mask,partial viewing,few large,Stimulus\all_stim\occlusion\partialviewing\fewlarge\control\fewlarge_partialViewing_control_bus4.png,mask_img/000000005574.png,experiment,e,e,556.5102324000036
V3,23,24,Male,Right,167,Block 2,0.6897721999848727,0.1,true,firehydrant,firehydrant,occlusion,control,mask,partial viewing,many small,Stimulus\all_stim\occlusion\partialviewing\manysmall\control\manysmall_partialViewing_control_firehydrant2.png,mask_img/000000039089.png,experiment,r,r,558.1740110999963
V3,23,24,Male,Right,168,Block 2,0.657652900001267,0.05,true,bird,bird,occlusion,control,mask,partial viewing,many small,Stimulus\all_stim\occlusion\partialviewing\manysmall\control\manysmall_partialViewing_control_bird9.png,mask_img/000000035514.png,experiment,q,q,559.8960037999786
V3,23,24,Male,Right,169,Block 2,0.9420775000180583,0.025,true,building,building,occlusion,high,mask,partial viewing,few large,Stimulus\all_stim\occlusion\partialviewing\fewlarge\high\fewlarge_partialViewing_high_building5.png,mask_img/000000014759.png,experiment,o,o,561.6782947999891
V3,23,24,Male,Right,170,Block 2,0.8712113999936264,0.1,true,bus,bus,occlusion,control,mask,partial viewing,few large,Stimulus\all_stim\occlusion\partialviewing\fewlarge\control\fewlarge_partialViewing_control_bus2.png,mask_img/000000005359.png,experiment,e,e,563.254245499993
V3,23,24,Male,Right,171,Block 2,0.76983130001463,0.025,true,building,building,occlusion,low,mask,partial viewing,few large,Stimulus\all_stim\occlusion\partialviewing\fewlarge\low\fewlarge_partialViewing_low_building5.png,mask_img/000000025034.png,experiment,o,o,564.8306459999876
V3,23,24,Male,Right,172,Block 2,0.8941941999946721,0.025,true,tree,tree,occlusion,control,mask,partial viewing,few large,Stimulus\all_stim\occlusion\partialviewing\fewlarge\control\fewlarge_partialViewing_control_tree10.png,mask_img/000000010414.png,experiment,w,w,566.4702087999904
V3,23,24,Male,Right,173,Block 2,0.8850520999985747,0.1,true,firehydrant,firehydrant,occlusion,high,mask,partial viewing,many small,Stimulus\all_stim\occlusion\partialviewing\manysmall\high\manysmall_partialViewing_high_firehydrant1.png,mask_img/000000049987.png,experiment,r,r,568.4066255999787
V3,23,24,Male,Right,174,Block 2,0.7711047999910079,0.025,true,building,building,occlusion,high,mask,partial viewing,few large,Stimulus\all_stim\occlusion\partialviewing\fewlarge\high\fewlarge_partialViewing_high_building6.png,mask_img/000000014774.png,experiment,o,o,569.9041264999832
V3,23,24,Male,Right,175,Block 2,0.7092194999859203,0.05,true,banana,banana,occlusion,control,mask,partial viewing,many small,Stimulus\all_stim\occlusion\partialviewing\manysmall\control\manysmall_partialViewing_control_banana6.png,mask_img/000000033756.png,experiment,u,u,571.5019790999941
V3,23,24,Male,Right,176,Block 2,0.8058660000097007,0.025,true,cat,cat,occlusion,control,mask,partial viewing,many small,Stimulus\all_stim\occlusion\partialviewing\manysmall\control\manysmall_partialViewing_control_cat5.png,mask_img/000000038601.png,experiment,i,i,573.3900068999792
V3,23,24,Male,Right,177,Block 2,0.748626399989007,0.025,true,bird,bird,occlusion,low,mask,partial viewing,many small,Stimulus\all_stim\occlusion\partialviewing\manysmall\low\manysmall_partialViewing_low_bird7.png,mask_img/000000056036.png,experiment,q,q,575.2948487999965
V3,23,24,Male,Right,178,Block 2,0.7012404999986757,0.1,true,bird,bird,occlusion,control,mask,partial viewing,many small,Stimulus\all_stim\occlusion\partialviewing\manysmall\control\manysmall_partialViewing_control_bird3.png,mask_img/000000034570.png,experiment,q,q,576.7262717999984
V3,23,24,Male,Right,179,Block 2,0.7410374000028241,0.025,true,bird,bird,occlusion,high,mask,partial viewing,few large,Stimulus\all_stim\occlusion\partialviewing\fewlarge\high\fewlarge_partialViewing_high_bird7.png,mask_img/000000013949.png,experiment,q,q,578.3263710000028
V3,23,24,Male,Right,180,Block 2,0.6723271999799181,0.1,true,person,person,occlusion,low,mask,partial viewing,few large,Stimulus\all_stim\occlusion\partialviewing\fewlarge\low\fewlarge_partialViewing_low_person3.png,mask_img/000000029506.png,experiment,p,p,579.7107333999884
V3,23,24,Male,Right,181,Block 2,0.6049852000141982,0.1,true,person,person,occlusion,control,mask,partial viewing,many small,Stimulus\all_stim\occlusion\partialviewing\manysmall\control\manysmall_partialViewing_control_person2.png,mask_img/000000039971.png,experiment,p,p,581.103984299989
V3,23,24,Male,Right,182,Block 2,1.4416588000021875,0.025,true,banana,banana,occlusion,high,mask,partial viewing,many small,Stimulus\all_stim\occlusion\partialviewing\manysmall\high\manysmall_partialViewing_high_banana9.png,mask_img/000000043579.png,experiment,u,u,583.6060833999945
V3,23,24,Male,Right,183,Block 2,0.7544328999938443,0.025,true,banana,banana,occlusion,control,mask,partial viewing,few large,Stimulus\all_stim\occlusion\partialviewing\fewlarge\control\fewlarge_partialViewing_control_banana3.png,mask_img/000000000394.png,experiment,u,u,585.3500964999839
V3,23,24,Male,Right,184,Block 2,0.7075189999886788,0.1,true,bird,bird,occlusion,low,mask,partial viewing,few large,Stimulus\all_stim\occlusion\partialviewing\fewlarge\low\fewlarge_partialViewing_low_bird4.png,mask_img/000000024193.png,experiment,q,q,587.1421424
V3,23,24,Male,Right,185,Block 2,1.163494400010677,0.025,true,person,person,occlusion,control,mask,partial viewing,many small,Stimulus\all_stim\occlusion\partialviewing\manysmall\control\manysmall_partialViewing_control_person1.png,mask_img/000000039656.png,experiment,p,p,589.0062373999972
V3,23,24,Male,Right,186,Block 2,0.8916289999906439,0.05,true,banana,banana,occlusion,high,mask,partial viewing,few large,Stimulus\all_stim\occlusion\partialviewing\fewlarge\high\fewlarge_partialViewing_high_banana7.png,mask_img/000000012567.png,experiment,u,u,590.8861688000034
V3,23,24,Male,Right,187,Block 2,1.1633619000203907,0.025,true,person,person,occlusion,control,mask,partial viewing,many small,Stimulus\all_stim\occlusion\partialviewing\manysmall\control\manysmall_partialViewing_control_person7.png,mask_img/000000040399.png,experiment,p,p,592.7584707999777
V3,23,24,Male,Right,188,Block 2,1.5684801999886986,0.05,false,cat,tree,occlusion,high,mask,partial viewing,many small,Stimulus\all_stim\occlusion\partialviewing\manysmall\high\manysmall_partialViewing_high_cat5.png,mask_img/000000049428.png,experiment,w,i,595.4544378999854
V3,23,24,Male,Right,189,Block 2,0.8022969999874476,0.05,true,tree,tree,occlusion,low,mask,partial viewing,few large,Stimulus\all_stim\occlusion\partialviewing\fewlarge\low\fewlarge_partialViewing_low_tree3.png,mask_img/000000031717.png,experiment,w,w,597.0625549999822
V3,23,24,Male,Right,190,Block 2,1.3739470999862533,0.05,true,building,building,occlusion,high,mask,partial viewing,few large,Stimulus\all_stim\occlusion\partialviewing\fewlarge\high\fewlarge_partialViewing_high_building1.png,mask_img/000000014335.png,experiment,o,o,599.5665482999757
V3,23,24,Male,Right,191,Block 2,0.8976651999983005,0.05,true,tree,tree,occlusion,low,mask,partial viewing,many small,Stimulus\all_stim\occlusion\partialviewing\manysmall\low\manysmall_partialViewing_low_tree8.png,mask_img/000000063804.png,experiment,w,w,601.4622487000015
V3,23,24,Male,Right,192,Block 2,1.4492447999946307,0.1,true,bird,bird,occlusion,low,mask,partial viewing,many small,Stimulus\all_stim\occlusion\partialviewing\manysmall\low\manysmall_partialViewing_low_bird4.png,mask_img/000000055859.png,experiment,q,q,603.5826201000018
V3,23,24,Male,Right,193,Block 2,0.7053875000274274,0.05,true,banana,banana,occlusion,control,mask,partial viewing,few large,Stimulus\all_stim\occlusion\partialviewing\fewlarge\control\fewlarge_partialViewing_control_banana4.png,mask_img/000000000438.png,experiment,u,u,604.9824505999859
V3,23,24,Male,Right,194,Block 2,0.7679791999980807,0.05,true,cat,cat,occlusion,low,mask,partial viewing,few large,Stimulus\all_stim\occlusion\partialviewing\fewlarge\low\fewlarge_partialViewing_low_cat1.png,mask_img/000000027151.png,experiment,i,i,606.6784799000015
V3,23,24,Male,Right,195,Block 2,0.8193468999816105,0.025,true,banana,banana,occlusion,low,mask,partial viewing,few large,Stimulus\all_stim\occlusion\partialviewing\fewlarge\low\fewlarge_partialViewing_low_banana2.png,mask_img/000000022983.png,experiment,u,u,608.3120934999897
V3,23,24,Male,Right,196,Block 2,0.7328094000113197,0.05,true,firehydrant,firehydrant,occlusion,low,mask,partial viewing,many small,Stimulus\all_stim\occlusion\partialviewing\manysmall\low\manysmall_partialViewing_low_firehydrant8.png,mask_img/000000061512.png,experiment,r,r,610.1982518000004
V3,23,24,Male,Right,197,Block 2,0.7498977000068408,0.1,true,building,building,occlusion,high,mask,partial viewing,few large,Stimulus\all_stim\occlusion\partialviewing\fewlarge\high\fewlarge_partialViewing_high_building7.png,mask_img/000000015155.png,experiment,o,o,612.0460861999891
V3,23,24,Male,Right,198,Block 2,1.1037396999890916,0.05,true,cat,cat,occlusion,control,mask,partial viewing,few large,Stimulus\all_stim\occlusion\partialviewing\fewlarge\control\fewlarge_partialViewing_control_cat5.png,mask_img/000000006870.png,experiment,i,i,613.9503306999977
V3,23,24,Male,Right,199,Block 2,0.6607835000031628,0.1,true,banana,banana,occlusion,high,mask,partial viewing,many small,Stimulus\all_stim\occlusion\partialviewing\manysmall\high\manysmall_partialViewing_high_banana1.png,mask_img/000000041962.png,experiment,u,u,615.2833084999875
V3,23,24,Male,Right,200,Block 2,0.7459783999947831,0.05,true,cat,cat,occlusion,control,mask,partial viewing,many small,Stimulus\all_stim\occlusion\partialviewing\manysmall\control\manysmall_partialViewing_control_cat4.png,mask_img/000000038479.png,experiment,i,i,617.1661346999754
V3,23,24,Male,Right,201,Block 2,0.845937000005506,0.1,true,firehydrant,firehydrant,occlusion,high,mask,partial viewing,many small,Stimulus\all_stim\occlusion\partialviewing\manysmall\high\manysmall_partialViewing_high_firehydrant8.png,mask_img/000000050794.png,experiment,r,r,618.8301206999749
V3,23,24,Male,Right,202,Block 2,0.7213056000182405,0.1,true,banana,banana,occlusion,control,mask,partial viewing,many small,Stimulus\all_stim\occlusion\partialviewing\manysmall\control\manysmall_partialViewing_control_banana3.png,mask_img/000000033323.png,experiment,u,u,620.4623885999899
V3,23,24,Male,Right,203,Block 2,1.156114899989916,0.025,true,firehydrant,firehydrant,occlusion,high,mask,partial viewing,many small,Stimulus\all_stim\occlusion\partialviewing\manysmall\high\manysmall_partialViewing_high_firehydrant10.png,mask_img/000000050148.png,experiment,r,r,622.5101566999801
V3,23,24,Male,Right,204,Block 2,0.8499045000062324,0.1,true,firehydrant,firehydrant,occlusion,low,mask,partial viewing,few large,Stimulus\all_stim\occlusion\partialviewing\fewlarge\low\fewlarge_partialViewing_low_firehydrant6.png,mask_img/000000028842.png,experiment,r,r,624.5182533999905
V3,23,24,Male,Right,205,Block 2,1.0233483999909367,0.025,true,firehydrant,firehydrant,occlusion,high,mask,partial viewing,few large,Stimulus\all_stim\occlusion\partialviewing\fewlarge\high\fewlarge_partialViewing_high_firehydrant8.png,mask_img/000000019528.png,experiment,r,r,626.4781365999952
V3,23,24,Male,Right,206,Block 2,0.6980287000187673,0.05,true,bird,bird,occlusion,high,mask,partial viewing,many small,Stimulus\all_stim\occlusion\partialviewing\manysmall\high\manysmall_partialViewing_high_bird7.png,mask_img/000000044580.png,experiment,q,q,627.8861406999931
V3,23,24,Male,Right,207,Block 2,0.8029662000190001,0.025,true,building,building,occlusion,high,mask,partial viewing,few large,Stimulus\all_stim\occlusion\partialviewing\fewlarge\high\fewlarge_partialViewing_high_building1.png,mask_img/000000014335.png,experiment,o,o,629.6941290999821
V3,23,24,Male,Right,208,Block 2,1.0391064000141341,0.05,true,bus,bus,occlusion,control,mask,partial viewing,few large,Stimulus\all_stim\occlusion\partialviewing\fewlarge\control\fewlarge_partialViewing_control_bus1.png,mask_img/000000005142.png,experiment,e,e,631.8621920000005
V3,23,24,Male,Right,209,Block 2,0.6696086000010837,0.025,true,bird,bird,occlusion,low,mask,partial viewing,few large,Stimulus\all_stim\occlusion\partialviewing\fewlarge\low\fewlarge_partialViewing_low_bird8.png,mask_img/000000024404.png,experiment,q,q,633.3261350999819
V3,23,24,Male,Right,210,Block 2,0.7652566000178922,0.025,true,firehydrant,firehydrant,occlusion,control,mask,partial viewing,few large,Stimulus\all_stim\occlusion\partialviewing\fewlarge\control\fewlarge_partialViewing_control_firehydrant2.png,mask_img/000000007934.png,experiment,r,r,634.9602952999994
V3,23,24,Male,Right,211,Block 2,0.7619940000004135,0.025,true,bus,bus,occlusion,control,mask,partial viewing,few large,Stimulus\all_stim\occlusion\partialviewing\fewlarge\control\fewlarge_partialViewing_control_bus10.png,mask_img/000000005282.png,experiment,e,e,636.4061808999977
V3,23,24,Male,Right,212,Block 2,0.7779163999948651,0.025,true,firehydrant,firehydrant,occlusion,low,mask,partial viewing,many small,Stimulus\all_stim\occlusion\partialviewing\manysmall\low\manysmall_partialViewing_low_firehydrant7.png,mask_img/000000061084.png,experiment,r,r,637.9660921999894
V3,23,24,Male,Right,213,Block 2,0.7337700999923982,0.025,true,banana,banana,occlusion,low,mask,partial viewing,many small,Stimulus\all_stim\occlusion\partialviewing\manysmall\low\manysmall_partialViewing_low_banana1.png,mask_img/000000054532.png,experiment,u,u,639.4540932999807
V3,23,24,Male,Right,214,Block 2,0.712386700004572,0.025,true,cat,cat,occlusion,control,mask,partial viewing,many small,Stimulus\all_stim\occlusion\partialviewing\manysmall\control\manysmall_partialViewing_control_cat6.png,mask_img/000000038753.png,experiment,i,i,641.0220824999851
V3,23,24,Male,Right,215,Block 2,0.5635051000281237,0.025,false,person,building,occlusion,control,mask,partial viewing,few large,Stimulus\all_stim\occlusion\partialviewing\fewlarge\control\fewlarge_partialViewing_control_person3.png,mask_img/000000008920.png,experiment,o,p,642.6930180999916
V3,23,24,Male,Right,216,Block 2,0.9149108999990858,0.025,true,cat,cat,occlusion,high,mask,partial viewing,few large,Stimulus\all_stim\occlusion\partialviewing\fewlarge\high\fewlarge_partialViewing_high_cat7.png,mask_img/000000017580.png,experiment,i,i,644.4304538999859
V3,23,24,Male,Right,217,Block 2,0.8382267999986652,0.05,true,tree,tree,occlusion,control,mask,partial viewing,many small,Stimulus\all_stim\occlusion\partialviewing\manysmall\control\manysmall_partialViewing_control_tree4.png,mask_img/000000041022.png,experiment,w,w,646.232174099976
V3,23,24,Male,Right,218,Block 2,0.7902338999847416,0.025,true,bird,bird,occlusion,control,mask,partial viewing,many small,Stimulus\all_stim\occlusion\partialviewing\manysmall\control\manysmall_partialViewing_control_bird8.png,mask_img/000000035190.png,experiment,q,q,647.7500298999948
V3,23,24,Male,Right,219,Block 2,0.8157559999963269,0.1,true,bird,bird,occlusion,control,mask,partial viewing,many small,Stimulus\all_stim\occlusion\partialviewing\manysmall\control\manysmall_partialViewing_control_bird8.png,mask_img/000000035190.png,experiment,q,q,649.390044699976
V3,23,24,Male,Right,220,Block 2,0.8959622999827843,0.025,true,bus,bus,occlusion,low,mask,partial viewing,few large,Stimulus\all_stim\occlusion\partialviewing\fewlarge\low\fewlarge_partialViewing_low_bus7.png,mask_img/000000026720.png,experiment,e,e,651.36618859999
V3,23,24,Male,Right,221,Block 2,0.6635764999955427,0.05,true,firehydrant,firehydrant,occlusion,control,mask,partial viewing,few large,Stimulus\all_stim\occlusion\partialviewing\fewlarge\control\fewlarge_partialViewing_control_firehydrant6.png,mask_img/000000008025.png,experiment,r,r,652.8303102999926
V3,23,24,Male,Right,222,Block 2,1.001632100000279,0.025,true,tree,tree,occlusion,low,mask,partial viewing,few large,Stimulus\all_stim\occlusion\partialviewing\fewlarge\low\fewlarge_partialViewing_low_tree10.png,mask_img/000000031454.png,experiment,w,w,654.9823285999883
V3,23,24,Male,Right,223,Block 2,0.9239750000124332,0.05,true,banana,banana,occlusion,low,mask,partial viewing,few large,Stimulus\all_stim\occlusion\partialviewing\fewlarge\low\fewlarge_partialViewing_low_banana9.png,mask_img/000000023967.png,experiment,u,u,656.9985009999946
V3,23,24,Male,Right,224,Block 2,0.800849899998866,0.025,true,banana,banana,occlusion,control,mask,partial viewing,few large,Stimulus\all_stim\occlusion\partialviewing\fewlarge\control\fewlarge_partialViewing_control_banana2.png,mask_img/000000000312.png,experiment,u,u,658.6302191999857
V3,23,24,Male,Right,225,Block 2,0.792317000014009,0.1,true,building,building,occlusion,control,mask,partial viewing,few large,Stimulus\all_stim\occlusion\partialviewing\fewlarge\control\fewlarge_partialViewing_control_building1.png,mask_img/000000003084.png,experiment,o,o,660.183152099984
V3,23,24,Male,Right,226,Block 2,0.4490970999759156,0.05,true,person,person,occlusion,control,mask,partial viewing,many small,Stimulus\all_stim\occlusion\partialviewing\manysmall\control\manysmall_partialViewing_control_person8.png,mask_img/000000040466.png,experiment,p,p,661.5186230999825
V3,23,24,Male,Right,227,Block 2,0.7718156999908388,0.05,true,cat,cat,occlusion,high,mask,partial viewing,few large,Stimulus\all_stim\occlusion\partialviewing\fewlarge\high\fewlarge_partialViewing_high_cat1.png,mask_img/000000017183.png,experiment,i,i,663.0301070999994
V3,23,24,Male,Right,228,Block 2,1.2549156000022776,0.1,true,firehydrant,firehydrant,occlusion,control,mask,partial viewing,few large,Stimulus\all_stim\occlusion\partialviewing\fewlarge\control\fewlarge_partialViewing_control_firehydrant3.png,mask_img/000000007946.png,experiment,r,r,665.1583987999766
V3,23,24,Male,Right,229,Block 2,0.7223876000207383,0.1,true,building,building,occlusion,low,mask,partial viewing,few large,Stimulus\all_stim\occlusion\partialviewing\fewlarge\low\fewlarge_partialViewing_low_building2.png,mask_img/000000024702.png,experiment,o,o,666.8461287999817
V3,23,24,Male,Right,230,Block 2,0.7911765000026207,0.025,true,cat,cat,occlusion,control,mask,partial viewing,few large,Stimulus\all_stim\occlusion\partialviewing\fewlarge\control\fewlarge_partialViewing_control_cat8.png,mask_img/000000007393.png,experiment,i,i,668.5740358999756
V3,23,24,Male,Right,231,Block 2,0.9845465999969747,0.1,true,bus,bus,occlusion,high,mask,partial viewing,many small,Stimulus\all_stim\occlusion\partialviewing\manysmall\high\manysmall_partialViewing_high_bus8.png,mask_img/000000048169.png,experiment,e,e,670.3901151999889
V3,23,24,Male,Right,232,Block 2,0.8232235000177752,0.1,true,person,person,occlusion,low,mask,partial viewing,many small,Stimulus\all_stim\occlusion\partialviewing\manysmall\low\manysmall_partialViewing_low_person8.png,mask_img/000000062420.png,experiment,p,p,672.0862802999909
V3,23,24,Male,Right,233,Block 2,0.7312678000016604,0.025,true,bus,bus,occlusion,control,mask,partial viewing,many small,Stimulus\all_stim\occlusion\partialviewing\manysmall\control\manysmall_partialViewing_control_bus6.png,mask_img/000000037174.png,experiment,e,e,673.7744424999983
V3,23,24,Male,Right,234,Block 2,0.7145479000173509,0.1,true,tree,tree,occlusion,control,mask,partial viewing,many small,Stimulus\all_stim\occlusion\partialviewing\manysmall\control\manysmall_partialViewing_control_tree1.png,mask_img/000000040886.png,experiment,w,w,675.5340585999948
V3,23,24,Male,Right,235,Block 2,1.196966199990129,0.1,true,bus,bus,occlusion,high,mask,partial viewing,few large,Stimulus\all_stim\occlusion\partialviewing\fewlarge\high\fewlarge_partialViewing_high_bus6.png,mask_img/000000015987.png,experiment,e,e,677.4704146999866
V3,23,24,Male,Right,236,Block 2,1.5979753000137862,0.025,true,cat,cat,occlusion,control,mask,partial viewing,few large,Stimulus\all_stim\occlusion\partialviewing\fewlarge\control\fewlarge_partialViewing_control_cat6.png,mask_img/000000007179.png,experiment,i,i,679.7660898999893
V3,23,24,Male,Right,237,Block 2,0.809323299996322,0.05,true,tree,tree,occlusion,control,mask,partial viewing,few large,Stimulus\all_stim\occlusion\partialviewing\fewlarge\control\fewlarge_partialViewing_control_tree10.png,mask_img/000000010414.png,experiment,w,w,681.5024704999814
V3,23,24,Male,Right,238,Block 2,0.9240023999882396,0.1,false,cat,building,occlusion,high,mask,partial viewing,many small,Stimulus\all_stim\occlusion\partialviewing\manysmall\high\manysmall_partialViewing_high_cat9.png,mask_img/000000049933.png,experiment,o,i,683.4387825999875
V3,23,24,Male,Right,239,Block 2,0.9920260999933816,0.05,true,bus,bus,occlusion,control,mask,partial viewing,many small,Stimulus\all_stim\occlusion\partialviewing\manysmall\control\manysmall_partialViewing_control_bus2.png,mask_img/000000036622.png,experiment,e,e,685.3822756999871
V3,23,24,Male,Right,240,Block 2,0.8560968000092544,0.05,true,banana,banana,occlusion,control,mask,partial viewing,many small,Stimulus\all_stim\occlusion\partialviewing\manysmall\control\manysmall_partialViewing_control_banana8.png,mask_img/000000033904.png,experiment,u,u,687.2081203999987
V3,23,24,Male,Right,241,Block 2,1.7634183000191115,0.05,false,banana,bus,occlusion,high,mask,partial viewing,few large,Stimulus\all_stim\occlusion\partialviewing\fewlarge\high\fewlarge_partialViewing_high_banana3.png,mask_img/000000012313.png,experiment,e,u,689.9746201999951
V3,23,24,Male,Right,242,Block 2,1.3225711000268348,0.05,false,cat,bird,occlusion,low,mask,partial viewing,few large,Stimulus\all_stim\occlusion\partialviewing\fewlarge\low\fewlarge_partialViewing_low_cat3.png,mask_img/000000027556.png,experiment,q,i,692.0062493000005
V3,23,24,Male,Right,243,Block 2,1.215104299975792,0.025,true,banana,banana,occlusion,high,mask,partial viewing,many small,Stimulus\all_stim\occlusion\partialviewing\manysmall\high\manysmall_partialViewing_high_banana6.png,mask_img/000000042704.png,experiment,u,u,693.9023843999894
V3,23,24,Male,Right,244,Block 2,0.8460449000122026,0.1,true,building,building,occlusion,high,mask,partial viewing,few large,Stimulus\all_stim\occlusion\partialviewing\fewlarge\high\fewlarge_partialViewing_high_building8.png,mask_img/000000015366.png,experiment,o,o,695.5900819999806
V3,23,24,Male,Right,245,Block 2,1.2088309999962803,0.05,true,bird,bird,occlusion,high,mask,partial viewing,few large,Stimulus\all_stim\occlusion\partialviewing\fewlarge\high\fewlarge_partialViewing_high_bird10.png,mask_img/000000013127.png,experiment,q,q,697.7187893999799
V3,23,24,Male,Right,246,Block 2,0.834240799973486,0.05,true,cat,cat,occlusion,control,mask,partial viewing,few large,Stimulus\all_stim\occlusion\partialviewing\fewlarge\control\fewlarge_partialViewing_control_cat6.png,mask_img/000000007179.png,experiment,i,i,699.5821861999866
V3,23,24,Male,Right,247,Block 2,0.8820922000159044,0.1,true,person,person,occlusion,high,mask,partial viewing,few large,Stimulus\all_stim\occlusion\partialviewing\fewlarge\high\fewlarge_partialViewing_high_person9.png,mask_img/000000021003.png,experiment,p,p,701.1504013999947
V3,23,24,Male,Right,248,Block 2,1.9505783000204246,0.025,false,cat,tree,occlusion,high,mask,partial viewing,many small,Stimulus\all_stim\occlusion\partialviewing\manysmall\high\manysmall_partialViewing_high_cat6.png,mask_img/000000049562.png,experiment,w,i,704.1102389000007
V3,23,24,Male,Right,249,Block 2,0.822593400022015,0.1,true,person,person,occlusion,low,mask,partial viewing,few large,Stimulus\all_stim\occlusion\partialviewing\fewlarge\low\fewlarge_partialViewing_low_person6.png,mask_img/000000030267.png,experiment,p,p,705.6620526999759
V3,23,24,Male,Right,250,Block 2,0.7621871000155807,0.05,true,bird,bird,occlusion,high,mask,partial viewing,few large,Stimulus\all_stim\occlusion\partialviewing\fewlarge\high\fewlarge_partialViewing_high_bird6.png,mask_img/000000013944.png,experiment,q,q,707.4781517999945
V3,23,24,Male,Right,251,Block 2,0.802782600017963,0.025,true,tree,tree,occlusion,control,mask,partial viewing,few large,Stimulus\all_stim\occlusion\partialviewing\fewlarge\control\fewlarge_partialViewing_control_tree6.png,mask_img/000000011328.png,experiment,w,w,709.1341908999893
V3,23,24,Male,Right,252,Block 2,0.6378219999896828,0.1,true,firehydrant,firehydrant,occlusion,control,mask,partial viewing,many small,Stimulus\all_stim\occlusion\partialviewing\manysmall\control\manysmall_partialViewing_control_firehydrant7.png,mask_img/000000039475.png,experiment,r,r,710.8199871999968
V3,23,24,Male,Right,253,Block 2,0.7449755000125151,0.1,true,bus,bus,occlusion,high,mask,partial viewing,many small,Stimulus\all_stim\occlusion\partialviewing\manysmall\high\manysmall_partialViewing_high_bus10.png,mask_img/000000046805.png,experiment,e,e,712.4061566999881
V3,23,24,Male,Right,254,Block 2,0.6188637999875937,0.1,true,tree,tree,occlusion,low,mask,partial viewing,few large,Stimulus\all_stim\occlusion\partialviewing\fewlarge\low\fewlarge_partialViewing_low_tree6.png,mask_img/000000032720.png,experiment,w,w,713.9371353999886
V3,23,24,Male,Right,255,Block 2,1.1623719000199344,0.05,true,bus,bus,occlusion,high,mask,partial viewing,many small,Stimulus\all_stim\occlusion\partialviewing\manysmall\high\manysmall_partialViewing_high_bus1.png,mask_img/000000046676.png,experiment,e,e,716.0701888999902
V3,23,24,Male,Right,256,Block 2,0.6086348000098951,0.1,true,bus,bus,occlusion,high,mask,partial viewing,few large,Stimulus\all_stim\occlusion\partialviewing\fewlarge\high\fewlarge_partialViewing_high_bus1.png,mask_img/000000015645.png,experiment,e,e,717.8208297999809
V3,23,24,Male,Right,257,Block 2,0.7723489000054542,0.1,true,tree,tree,occlusion,high,mask,partial viewing,many small,Stimulus\all_stim\occlusion\partialviewing\manysmall\high\manysmall_partialViewing_high_tree8.png,mask_img/000000054334.png,experiment,w,w,719.5200234999938
V3,23,24,Male,Right,258,Block 2,0.8663239000015892,0.1,true,tree,tree,occlusion,high,mask,partial viewing,few large,Stimulus\all_stim\occlusion\partialviewing\fewlarge\high\fewlarge_partialViewing_high_tree5.png,mask_img/000000022102.png,experiment,w,w,721.4063380000007
V3,23,24,Male,Right,259,Block 2,0.6564683999749832,0.05,true,firehydrant,firehydrant,occlusion,control,mask,partial viewing,many small,Stimulus\all_stim\occlusion\partialviewing\manysmall\control\manysmall_partialViewing_control_firehydrant9.png,mask_img/000000039643.png,experiment,r,r,722.9407330999966
V3,23,24,Male,Right,260,Block 2,0.7151819000137039,0.025,true,building,building,occlusion,control,mask,partial viewing,few large,Stimulus\all_stim\occlusion\partialviewing\fewlarge\control\fewlarge_partialViewing_control_building5.png,mask_img/000000004642.png,experiment,o,o,724.6542179999815
V3,23,24,Male,Right,261,Block 2,1.2986254999996163,0.05,true,bus,bus,occlusion,low,mask,partial viewing,few large,Stimulus\all_stim\occlusion\partialviewing\fewlarge\low\fewlarge_partialViewing_low_bus10.png,mask_img/000000025855.png,experiment,e,e,726.6224997999961
V3,23,24,Male,Right,262,Block 2,0.6383006000251044,0.05,true,tree,tree,occlusion,control,mask,partial viewing,few large,Stimulus\all_stim\occlusion\partialviewing\fewlarge\control\fewlarge_partialViewing_control_tree2.png,mask_img/000000010560.png,experiment,w,w,728.2223842999956
V3,23,24,Male,Right,263,Block 2,0.7782785999879707,0.1,true,tree,tree,occlusion,low,mask,partial viewing,many small,Stimulus\all_stim\occlusion\partialviewing\manysmall\low\manysmall_partialViewing_low_tree2.png,mask_img/000000062875.png,experiment,w,w,730.055097000004
V3,23,24,Male,Right,264,Block 2,0.7860161999997217,0.1,false,bus,firehydrant,occlusion,low,mask,partial viewing,many small,Stimulus\all_stim\occlusion\partialviewing\manysmall\low\manysmall_partialViewing_low_bus9.png,mask_img/000000058910.png,experiment,r,e,731.5044819999894
V3,23,24,Male,Right,265,Block 2,0.9267872000054922,0.025,false,person,bird,occlusion,low,mask,partial viewing,many small,Stimulus\all_stim\occlusion\partialviewing\manysmall\low\manysmall_partialViewing_low_person9.png,mask_img/000000062427.png,experiment,q,p,733.3661606999813
V3,23,24,Male,Right,266,Block 2,0.7415626000147313,0.1,true,bird,bird,occlusion,control,mask,partial viewing,many small,Stimulus\all_stim\occlusion\partialviewing\manysmall\control\manysmall_partialViewing_control_bird1.png,mask_img/000000034113.png,experiment,q,q,735.1980781999882
V3,23,24,Male,Right,267,Block 2,0.8661129999964032,0.05,true,building,building,occlusion,high,mask,partial viewing,many small,Stimulus\all_stim\occlusion\partialviewing\manysmall\high\manysmall_partialViewing_high_building6.png,mask_img/000000046155.png,experiment,o,o,737.2223561999854
V3,23,24,Male,Right,268,Block 2,0.6110971000161953,0.025,true,building,building,occlusion,low,mask,partial viewing,many small,Stimulus\all_stim\occlusion\partialviewing\manysmall\low\manysmall_partialViewing_low_building6.png,mask_img/000000057979.png,experiment,o,o,738.6621733999928
V3,23,24,Male,Right,269,Block 2,0.7563121000130195,0.05,true,bird,bird,occlusion,control,mask,partial viewing,many small,Stimulus\all_stim\occlusion\partialviewing\manysmall\control\manysmall_partialViewing_control_bird5.png,mask_img/000000034930.png,experiment,q,q,740.3583485999843
V3,23,24,Male,Right,270,Block 2,0.7505605999904219,0.05,true,banana,banana,occlusion,high,mask,partial viewing,few large,Stimulus\all_stim\occlusion\partialviewing\fewlarge\high\fewlarge_partialViewing_high_banana2.png,mask_img/000000012179.png,experiment,u,u,742.0223233999859
V3,23,24,Male,Right,271,Block 2,0.8758579000132158,0.1,false,cat,bird,occlusion,high,mask,partial viewing,few large,Stimulus\all_stim\occlusion\partialviewing\fewlarge\high\fewlarge_partialViewing_high_cat7.png,mask_img/000000017580.png,experiment,q,i,743.9908854999812
V3,23,24,Male,Right,272,Block 2,0.8037599999806844,0.05,true,bird,bird,occlusion,high,mask,partial viewing,few large,Stimulus\all_stim\occlusion\partialviewing\fewlarge\high\fewlarge_partialViewing_high_bird2.png,mask_img/000000013169.png,experiment,q,q,745.582322000002
V3,23,24,Male,Right,273,Block 2,0.6651965000201017,0.025,true,building,building,occlusion,low,mask,partial viewing,few large,Stimulus\all_stim\occlusion\partialviewing\fewlarge\low\fewlarge_partialViewing_low_building3.png,mask_img/000000024808.png,experiment,o,o,747.4165178999829
V3,23,24,Male,Right,274,Block 2,1.567222399986349,0.05,false,person,tree,occlusion,high,mask,partial viewing,many small,Stimulus\all_stim\occlusion\partialviewing\manysmall\high\manysmall_partialViewing_high_person8.png,mask_img/000000052606.png,experiment,w,p,749.6381193999841
V3,23,24,Male,Right,275,Block 2,0.7878169000032358,0.1,true,building,building,occlusion,control,mask,partial viewing,few large,Stimulus\all_stim\occlusion\partialviewing\fewlarge\control\fewlarge_partialViewing_control_building4.png,mask_img/000000004239.png,experiment,o,o,751.3983507999801
V3,23,24,Male,Right,276,Block 2,0.8509909000131302,0.025,true,person,person,occlusion,high,mask,partial viewing,few large,Stimulus\all_stim\occlusion\partialviewing\fewlarge\high\fewlarge_partialViewing_high_person5.png,mask_img/000000020381.png,experiment,p,p,753.3740578999859
V3,23,24,Male,Right,277,Block 2,1.3538242999929935,0.1,true,firehydrant,firehydrant,occlusion,low,mask,partial viewing,many small,Stimulus\all_stim\occlusion\partialviewing\manysmall\low\manysmall_partialViewing_low_firehydrant6.png,mask_img/000000060647.png,experiment,r,r,755.7023599999957
V3,23,24,Male,Right,278,Block 2,0.6134848000074271,0.05,true,bird,bird,occlusion,control,mask,partial viewing,few large,Stimulus\all_stim\occlusion\partialviewing\fewlarge\control\fewlarge_partialViewing_control_bird2.png,mask_img/000000001647.png,experiment,q,q,757.3582191999885
V3,23,24,Male,Right,279,Block 2,1.0690364000038244,0.025,true,cat,cat,occlusion,high,mask,partial viewing,few large,Stimulus\all_stim\occlusion\partialviewing\fewlarge\high\fewlarge_partialViewing_high_cat1.png,mask_img/000000017183.png,experiment,i,i,759.2477561999985
V3,23,24,Male,Right,280,Block 2,0.6719691999896895,0.1,true,banana,banana,occlusion,low,mask,partial viewing,many small,Stimulus\all_stim\occlusion\partialviewing\manysmall\low\manysmall_partialViewing_low_banana3.png,mask_img/000000054875.png,experiment,u,u,760.6462337999837
V3,23,24,Male,Right,281,Block 2,0.776933499990264,0.025,true,bird,bird,occlusion,high,mask,partial viewing,few large,Stimulus\all_stim\occlusion\partialviewing\fewlarge\high\fewlarge_partialViewing_high_bird1.png,mask_img/000000013061.png,experiment,q,q,762.3379662999942
V3,23,24,Male,Right,282,Block 2,0.828454700007569,0.025,true,person,person,occlusion,low,mask,partial viewing,few large,Stimulus\all_stim\occlusion\partialviewing\fewlarge\low\fewlarge_partialViewing_low_person10.png,mask_img/000000029128.png,experiment,p,p,763.8620075999934
V3,23,24,Male,Right,283,Block 2,0.9276922999997623,0.025,true,building,building,occlusion,high,mask,partial viewing,few large,Stimulus\all_stim\occlusion\partialviewing\fewlarge\high\fewlarge_partialViewing_high_building8.png,mask_img/000000015366.png,experiment,o,o,765.662302599987
V3,23,24,Male,Right,284,Block 2,2.5523548999917693,0.025,true,cat,cat,occlusion,high,mask,partial viewing,many small,Stimulus\all_stim\occlusion\partialviewing\manysmall\high\manysmall_partialViewing_high_cat4.png,mask_img/000000049331.png,experiment,i,i,769.2463987999945
V3,23,24,Male,Right,285,Block 2,0.6973672999884002,0.025,true,banana,banana,occlusion,control,mask,partial viewing,few large,Stimulus\all_stim\occlusion\partialviewing\fewlarge\control\fewlarge_partialViewing_control_banana9.png,mask_img/000000000731.png,experiment,u,u,770.7741384999827
V3,23,24,Male,Right,286,Block 2,0.5626290999935009,0.05,true,building,building,occlusion,low,mask,partial viewing,few large,Stimulus\all_stim\occlusion\partialviewing\fewlarge\low\fewlarge_partialViewing_low_building3.png,mask_img/000000024808.png,experiment,o,o,772.224063200003
V3,23,24,Male,Right,287,Block 2,0.7978923000046052,0.1,true,bird,bird,occlusion,high,mask,partial viewing,many small,Stimulus\all_stim\occlusion\partialviewing\manysmall\high\manysmall_partialViewing_high_bird5.png,mask_img/000000044437.png,experiment,q,q,773.9905351999914
V3,23,24,Male,Right,288,Block 2,0.6385730000038166,0.025,true,person,person,occlusion,control,mask,partial viewing,few large,Stimulus\all_stim\occlusion\partialviewing\fewlarge\control\fewlarge_partialViewing_control_person2.png,mask_img/000000008787.png,experiment,p,p,822.5585056999989
V3,23,24,Male,Right,289,Block 3,0.8148537999950349,0.025,false,cat,person,occlusion,low,mask,partial viewing,many small,Stimulus\all_stim\occlusion\partialviewing\manysmall\low\manysmall_partialViewing_low_cat8.png,mask_img/000000060245.png,experiment,p,i,824.0622693999903
V3,23,24,Male,Right,290,Block 3,0.779497999988962,0.025,false,cat,tree,occlusion,high,mask,partial viewing,many small,Stimulus\all_stim\occlusion\partialviewing\manysmall\high\manysmall_partialViewing_high_cat9.png,mask_img/000000049933.png,experiment,w,i,825.6461427999893
V3,23,24,Male,Right,291,Block 3,0.7378743999870494,0.05,true,tree,tree,occlusion,low,mask,partial viewing,many small,Stimulus\all_stim\occlusion\partialviewing\manysmall\low\manysmall_partialViewing_low_tree2.png,mask_img/000000062875.png,experiment,w,w,827.4543350999884
V3,23,24,Male,Right,292,Block 3,0.6960132000094745,0.1,true,banana,banana,occlusion,high,mask,partial viewing,few large,Stimulus\all_stim\occlusion\partialviewing\fewlarge\high\fewlarge_partialViewing_high_banana10.png,mask_img/000000012178.png,experiment,u,u,829.0382762999798
V3,23,24,Male,Right,293,Block 3,0.6297616999945603,0.1,true,bird,bird,occlusion,low,mask,partial viewing,few large,Stimulus\all_stim\occlusion\partialviewing\fewlarge\low\fewlarge_partialViewing_low_bird7.png,mask_img/000000024403.png,experiment,q,q,830.6306744999893
V3,23,24,Male,Right,294,Block 3,0.692534900008468,0.025,true,tree,tree,occlusion,low,mask,partial viewing,few large,Stimulus\all_stim\occlusion\partialviewing\fewlarge\low\fewlarge_partialViewing_low_tree6.png,mask_img/000000032720.png,experiment,w,w,832.2546867999772
V3,23,24,Male,Right,295,Block 3,0.8243950000032783,0.1,true,tree,tree,occlusion,control,mask,partial viewing,many small,Stimulus\all_stim\occlusion\partialviewing\manysmall\control\manysmall_partialViewing_control_tree4.png,mask_img/000000041022.png,experiment,w,w,834.0300557999872
V3,23,24,Male,Right,296,Block 3,0.6468731999921147,0.05,true,banana,banana,occlusion,low,mask,partial viewing,few large,Stimulus\all_stim\occlusion\partialviewing\fewlarge\low\fewlarge_partialViewing_low_banana4.png,mask_img/000000023015.png,experiment,u,u,835.6142195999855
V3,23,24,Male,Right,297,Block 3,0.655492799996864,0.025,true,tree,tree,occlusion,low,mask,partial viewing,many small,Stimulus\all_stim\occlusion\partialviewing\manysmall\low\manysmall_partialViewing_low_tree1.png,mask_img/000000062690.png,experiment,w,w,837.2981972999987
V3,23,24,Male,Right,298,Block 3,0.7778737000189722,0.05,true,bus,bus,occlusion,low,mask,partial viewing,few large,Stimulus\all_stim\occlusion\partialviewing\fewlarge\low\fewlarge_partialViewing_low_bus1.png,mask_img/000000025820.png,experiment,e,e,839.0063888999866
V3,23,24,Male,Right,299,Block 3,0.7327105999866035,0.025,true,firehydrant,firehydrant,occlusion,high,mask,partial viewing,few large,Stimulus\all_stim\occlusion\partialviewing\fewlarge\high\fewlarge_partialViewing_high_firehydrant7.png,mask_img/000000019463.png,experiment,r,r,840.4222067999945
V3,23,24,Male,Right,300,Block 3,0.8302430000039749,0.025,true,bus,bus,occlusion,low,mask,partial viewing,many small,Stimulus\all_stim\occlusion\partialviewing\manysmall\low\manysmall_partialViewing_low_bus2.png,mask_img/000000058627.png,experiment,e,e,841.9422143999836
V3,23,24,Male,Right,301,Block 3,0.6630502000043634,0.025,true,person,person,occlusion,control,mask,partial viewing,few large,Stimulus\all_stim\occlusion\partialviewing\fewlarge\control\fewlarge_partialViewing_control_person8.png,mask_img/000000009729.png,experiment,p,p,843.2702959000017
V3,23,24,Male,Right,302,Block 3,0.6853261000069324,0.1,true,banana,banana,occlusion,high,mask,partial viewing,many small,Stimulus\all_stim\occlusion\partialviewing\manysmall\high\manysmall_partialViewing_high_banana7.png,mask_img/000000043024.png,experiment,u,u,844.966467899998
V3,23,24,Male,Right,303,Block 3,0.565103500004625,0.1,true,bird,bird,occlusion,control,mask,partial viewing,few large,Stimulus\all_stim\occlusion\partialviewing\fewlarge\control\fewlarge_partialViewing_control_bird4.png,mask_img/000000001997.png,experiment,q,q,846.6194600999879
V3,23,24,Male,Right,304,Block 3,0.6201941999897826,0.1,true,building,building,occlusion,control,mask,partial viewing,many small,Stimulus\all_stim\occlusion\partialviewing\manysmall\control\manysmall_partialViewing_control_building4.png,mask_img/000000035985.png,experiment,o,o,847.9371429999883
V3,23,24,Male,Right,305,Block 3,0.8415957999823149,0.1,false,bird,tree,occlusion,low,mask,partial viewing,many small,Stimulus\all_stim\occlusion\partialviewing\manysmall\low\manysmall_partialViewing_low_bird6.png,mask_img/000000056007.png,experiment,w,q,849.8942840999807
V3,23,24,Male,Right,306,Block 3,0.8479533999925479,0.05,true,bus,bus,occlusion,low,mask,partial viewing,many small,Stimulus\all_stim\occlusion\partialviewing\manysmall\low\manysmall_partialViewing_low_bus6.png,mask_img/000000058815.png,experiment,e,e,851.6784429999825
V3,23,24,Male,Right,307,Block 3,0.817492999980459,0.1,true,bus,bus,occlusion,control,mask,partial viewing,many small,Stimulus\all_stim\occlusion\partialviewing\manysmall\control\manysmall_partialViewing_control_bus2.png,mask_img/000000036622.png,experiment,e,e,853.566287099995
V3,23,24,Male,Right,308,Block 3,0.9383366999973077,0.025,true,cat,cat,occlusion,control,mask,partial viewing,many small,Stimulus\all_stim\occlusion\partialviewing\manysmall\control\manysmall_partialViewing_control_cat9.png,mask_img/000000038862.png,experiment,i,i,855.446495399985
V3,23,24,Male,Right,309,Block 3,1.2508165999897756,0.1,true,banana,banana,occlusion,control,mask,partial viewing,many small,Stimulus\all_stim\occlusion\partialviewing\manysmall\control\manysmall_partialViewing_control_banana6.png,mask_img/000000033756.png,experiment,u,u,857.5981717999966
V3,23,24,Male,Right,310,Block 3,0.8122800999844912,0.05,true,person,person,occlusion,control,mask,partial viewing,many small,Stimulus\all_stim\occlusion\partialviewing\manysmall\control\manysmall_partialViewing_control_person5.png,mask_img/000000040275.png,experiment,p,p,859.230333399988
V3,23,24,Male,Right,311,Block 3,0.79220220001298,0.025,false,person,firehydrant,occlusion,high,mask,partial viewing,few large,Stimulus\all_stim\occlusion\partialviewing\fewlarge\high\fewlarge_partialViewing_high_person8.png,mask_img/000000020570.png,experiment,r,p,861.1183030999964
V3,23,24,Male,Right,312,Block 3,0.8253775000048336,0.025,true,building,building,occlusion,high,mask,partial viewing,many small,Stimulus\all_stim\occlusion\partialviewing\manysmall\high\manysmall_partialViewing_high_building2.png,mask_img/000000045306.png,experiment,o,o,862.8941941999947
V3,23,24,Male,Right,313,Block 3,0.620595799991861,0.1,true,cat,cat,occlusion,high,mask,partial viewing,few large,Stimulus\all_stim\occlusion\partialviewing\fewlarge\high\fewlarge_partialViewing_high_cat2.png,mask_img/000000017352.png,experiment,i,i,864.3597851999803
V3,23,24,Male,Right,314,Block 3,0.576433200010797,0.025,true,banana,banana,occlusion,low,mask,partial viewing,few large,Stimulus\all_stim\occlusion\partialviewing\fewlarge\low\fewlarge_partialViewing_low_banana4.png,mask_img/000000023015.png,experiment,u,u,865.7596512000018
V3,23,24,Male,Right,315,Block 3,0.9774060999916401,0.025,false,cat,bird,occlusion,high,mask,partial viewing,many small,Stimulus\all_stim\occlusion\partialviewing\manysmall\high\manysmall_partialViewing_high_cat5.png,mask_img/000000049428.png,experiment,q,i,867.4141938999819
V3,23,24,Male,Right,316,Block 3,0.7152739999874029,0.1,true,bird,bird,occlusion,control,mask,partial viewing,few large,Stimulus\all_stim\occlusion\partialviewing\fewlarge\control\fewlarge_partialViewing_control_bird10.png,mask_img/000000001053.png,experiment,q,q,869.198315799993
V3,23,24,Male,Right,317,Block 3,0.676091399975121,0.05,true,banana,banana,occlusion,high,mask,partial viewing,few large,Stimulus\all_stim\occlusion\partialviewing\fewlarge\high\fewlarge_partialViewing_high_banana10.png,mask_img/000000012178.png,experiment,u,u,870.6620014999935
V3,23,24,Male,Right,318,Block 3,1.0610831000085454,0.05,true,building,building,occlusion,high,mask,partial viewing,many small,Stimulus\all_stim\occlusion\partialviewing\manysmall\high\manysmall_partialViewing_high_building5.png,mask_img/000000046029.png,experiment,o,o,872.3902943999856
V3,23,24,Male,Right,319,Block 3,1.3753638000052888,0.1,true,cat,cat,occlusion,low,mask,partial viewing,many small,Stimulus\all_stim\occlusion\partialviewing\manysmall\low\manysmall_partialViewing_low_cat5.png,mask_img/000000059660.png,experiment,i,i,874.6143879999872
V3,23,24,Male,Right,320,Block 3,0.8328630999894813,0.025,true,firehydrant,firehydrant,occlusion,high,mask,partial viewing,few large,Stimulus\all_stim\occlusion\partialviewing\fewlarge\high\fewlarge_partialViewing_high_firehydrant9.png,mask_img/000000019725.png,experiment,r,r,876.1583896999946
V3,23,24,Male,Right,321,Block 3,0.685345400008373,0.025,true,bird,bird,occlusion,low,mask,partial viewing,many small,Stimulus\all_stim\occlusion\partialviewing\manysmall\low\manysmall_partialViewing_low_bird5.png,mask_img/000000055942.png,experiment,q,q,877.9347874999803
V3,23,24,Male,Right,322,Block 3,0.6807883000001311,0.1,true,building,building,occlusion,low,mask,partial viewing,few large,Stimulus\all_stim\occlusion\partialviewing\fewlarge\low\fewlarge_partialViewing_low_building7.png,mask_img/000000025192.png,experiment,o,o,879.3663292999845
V3,23,24,Male,Right,323,Block 3,0.6884182000067085,0.025,true,firehydrant,firehydrant,occlusion,control,mask,partial viewing,many small,Stimulus\all_stim\occlusion\partialviewing\manysmall\control\manysmall_partialViewing_control_firehydrant6.png,mask_img/000000039406.png,experiment,r,r,881.1744522999797
V3,23,24,Male,Right,324,Block 3,0.9588685000198893,0.05,true,person,person,occlusion,control,mask,partial viewing,many small,Stimulus\all_stim\occlusion\partialviewing\manysmall\control\manysmall_partialViewing_control_person7.png,mask_img/000000040399.png,experiment,p,p,883.198332400003
V3,23,24,Male,Right,325,Block 3,0.7483146000013221,0.025,true,banana,banana,occlusion,high,mask,partial viewing,many small,Stimulus\all_stim\occlusion\partialviewing\manysmall\high\manysmall_partialViewing_high_banana8.png,mask_img/000000043291.png,experiment,u,u,884.6542955999903
V3,23,24,Male,Right,326,Block 3,0.8905851000163238,0.025,true,banana,banana,occlusion,control,mask,partial viewing,many small,Stimulus\all_stim\occlusion\partialviewing\manysmall\control\manysmall_partialViewing_control_banana5.png,mask_img/000000033669.png,experiment,u,u,886.390078700002
V3,23,24,Male,Right,327,Block 3,0.7452630000188947,0.1,true,cat,cat,occlusion,high,mask,partial viewing,many small,Stimulus\all_stim\occlusion\partialviewing\manysmall\high\manysmall_partialViewing_high_cat4.png,mask_img/000000049331.png,experiment,i,i,888.2864854999934
V3,23,24,Male,Right,328,Block 3,0.7354811000113841,0.1,true,bus,bus,occlusion,low,mask,partial viewing,many small,Stimulus\all_stim\occlusion\partialviewing\manysmall\low\manysmall_partialViewing_low_bus1.png,mask_img/000000058232.png,experiment,e,e,889.7105294999783
V3,23,24,Male,Right,329,Block 3,1.040412300004391,0.05,true,tree,tree,occlusion,low,mask,partial viewing,few large,Stimulus\all_stim\occlusion\partialviewing\fewlarge\low\fewlarge_partialViewing_low_tree7.png,mask_img/000000032906.png,experiment,w,w,891.8624751000025
V3,23,24,Male,Right,330,Block 3,0.8851353000209201,0.05,true,cat,cat,occlusion,low,mask,partial viewing,few large,Stimulus\all_stim\occlusion\partialviewing\fewlarge\low\fewlarge_partialViewing_low_cat8.png,mask_img/000000028171.png,experiment,i,i,893.5199115999858
V3,23,24,Male,Right,331,Block 3,0.8541546000051312,0.05,true,cat,cat,occlusion,high,mask,partial viewing,few large,Stimulus\all_stim\occlusion\partialviewing\fewlarge\high\fewlarge_partialViewing_high_cat4.png,mask_img/000000017364.png,experiment,i,i,895.382240899984
V3,23,24,Male,Right,332,Block 3,0.725527400005376,0.05,true,banana,banana,occlusion,high,mask,partial viewing,many small,Stimulus\all_stim\occlusion\partialviewing\manysmall\high\manysmall_partialViewing_high_banana8.png,mask_img/000000043291.png,experiment,u,u,897.1981227999786
V3,23,24,Male,Right,333,Block 3,0.7326351999945473,0.1,true,cat,cat,occlusion,high,mask,partial viewing,few large,Stimulus\all_stim\occlusion\partialviewing\fewlarge\high\fewlarge_partialViewing_high_cat3.png,mask_img/000000017356.png,experiment,i,i,898.6384317999764
V3,23,24,Male,Right,334,Block 3,0.6352071999863256,0.025,true,person,person,occlusion,control,mask,partial viewing,few large,Stimulus\all_stim\occlusion\partialviewing\fewlarge\control\fewlarge_partialViewing_control_person4.png,mask_img/000000009178.png,experiment,p,p,900.0381242999865
V3,23,24,Male,Right,335,Block 3,0.6840860999946017,0.025,true,bus,bus,occlusion,control,mask,partial viewing,many small,Stimulus\all_stim\occlusion\partialviewing\manysmall\control\manysmall_partialViewing_control_bus4.png,mask_img/000000036966.png,experiment,e,e,901.3987182999845
V3,23,24,Male,Right,336,Block 3,0.8686583999951836,0.1,true,building,building,occlusion,low,mask,partial viewing,many small,Stimulus\all_stim\occlusion\partialviewing\manysmall\low\manysmall_partialViewing_low_building3.png,mask_img/000000057646.png,experiment,o,o,903.3746791000012
