Version,pt_num,Age,Gender,Handedness,trial_nbr,block_number,rt,soa,acc,category,choiced_category,manipulation,difficulty,mask,type_occl,size_occl,filename,mask_filename,task,pressed_key,correct_key,Experiment Duration
V3,15,23,Male,Right,1,Training,5.605679400003282,0.1,false,cat,firehydrant,occlusion,low,mask,partial viewing,few large,Training_Stimulus\fewlarge_partialViewing_low_cat432.png,mask_img/000000003084.png,training,q,i,58.09652720000304
V3,15,23,Male,Right,2,Training,3.4495575000037206,0.025,false,person,building,occlusion,low,mask,partial viewing,many small,Training_Stimulus\manysmall_partialViewing_low_person189.png,mask_img/000000007179.png,training,w,r,63.062786499998765
V3,15,23,Male,Right,3,Training,4.024412300001131,0.025,false,tree,cat,occlusion,low,mask,partial viewing,few large,Training_Stimulus\fewlarge_partialViewing_low_tree9.png,mask_img/000000003694.png,training,i,u,68.47051959999953
V3,15,23,Male,Right,4,Training,3.344872800000303,0.1,true,banana,banana,occlusion,control,mask,partial viewing,many small,Training_Stimulus\manysmall_partialViewing_control_banana454.png,mask_img/000000004239.png,training,e,e,73.15795380000054
V3,15,23,Male,Right,5,Training,2.484144299996842,0.1,false,cat,person,occlusion,low,mask,partial viewing,many small,Training_Stimulus\manysmall_partialViewing_low_cat432.png,mask_img/000000006842.png,training,r,i,76.98434010000346
V3,15,23,Male,Right,6,Training,2.140749099999084,0.05,true,person,person,occlusion,control,mask,partial viewing,few large,Training_Stimulus\fewlarge_partialViewing_control_person189.png,mask_img/000000000595.png,training,r,r,80.40930649999791
V3,15,23,Male,Right,7,Training,3.5015735999986646,0.1,true,bus,bus,occlusion,low,mask,partial viewing,many small,Training_Stimulus\manysmall_partialViewing_low_bus180.png,mask_img/000000006709.png,training,o,o,85.33160769999813
V3,15,23,Male,Right,8,Training,3.446330599996145,0.025,false,bird,tree,occlusion,low,mask,partial viewing,few large,Training_Stimulus\fewlarge_partialViewing_low_bird4.png,mask_img/000000002774.png,training,u,p,89.87981109999964
V3,15,23,Male,Right,9,Training,1.6960109999999986,0.025,true,banana,banana,occlusion,control,mask,partial viewing,many small,Training_Stimulus\manysmall_partialViewing_control_banana454.png,mask_img/000000004239.png,training,e,e,93.11420380000345
V3,15,23,Male,Right,10,Training,1.8181757999991532,0.1,false,banana,tree,occlusion,high,mask,partial viewing,many small,Training_Stimulus\manysmall_partialViewing_high_banana454.png,mask_img/000000005359.png,training,u,e,96.1297401999982
V3,15,23,Male,Right,11,Training,2.5228807000021334,0.1,true,bus,bus,occlusion,high,mask,partial viewing,few large,Training_Stimulus\fewlarge_partialViewing_high_bus180.png,mask_img/000000001053.png,training,o,o,99.84971029999724
V3,15,23,Male,Right,12,Training,1.935995499996352,0.05,true,firehydrant,firehydrant,occlusion,control,mask,partial viewing,few large,Training_Stimulus\fewlarge_partialViewing_control_firehydrant90.png,mask_img/000000000459.png,training,q,q,102.92822400000296
V3,15,23,Male,Right,13,Training,1.7693935999996029,0.1,true,bus,bus,occlusion,control,mask,partial viewing,few large,Training_Stimulus\fewlarge_partialViewing_control_bus180.png,mask_img/000000000394.png,training,o,o,106.08484429999953
V3,15,23,Male,Right,14,Training,2.4495669000025373,0.025,true,person,person,occlusion,control,mask,partial viewing,many small,Training_Stimulus\manysmall_partialViewing_control_person189.png,mask_img/000000005142.png,training,r,r,109.83536750000349
V3,15,23,Male,Right,15,Training,3.056608899998537,0.025,true,firehydrant,firehydrant,occlusion,control,mask,partial viewing,few large,Training_Stimulus\fewlarge_partialViewing_control_firehydrant90.png,mask_img/000000000459.png,training,q,q,114.1164323999983
V3,15,23,Male,Right,16,Training,1.555016099999193,0.05,true,cat,cat,occlusion,control,mask,partial viewing,many small,Training_Stimulus\manysmall_partialViewing_control_cat432.png,mask_img/000000005105.png,training,i,i,117.10077679999813
V3,15,23,Male,Right,17,Training,2.8189767000003485,0.025,false,tree,cat,occlusion,high,mask,partial viewing,many small,Training_Stimulus\manysmall_partialViewing_high_tree9.png,mask_img/000000006263.png,training,i,u,121.36639429999923
V3,15,23,Male,Right,18,Training,2.071314100001473,0.05,true,tree,tree,occlusion,control,mask,partial viewing,few large,Training_Stimulus\fewlarge_partialViewing_control_tree9.png,mask_img/000000000626.png,training,u,u,124.64784089999739
V3,15,23,Male,Right,19,Training,1.6856445000012172,0.025,false,building,bus,occlusion,control,mask,partial viewing,many small,Training_Stimulus\manysmall_partialViewing_control_building24.png,mask_img/000000004739.png,training,o,w,127.71032700000069
V3,15,23,Male,Right,20,Training,2.1674563999986276,0.1,false,firehydrant,tree,occlusion,low,mask,partial viewing,many small,Training_Stimulus\manysmall_partialViewing_low_firehydrant90.png,mask_img/000000006870.png,training,u,q,131.02409900000202
V3,15,23,Male,Right,21,Training,2.2028787000017473,0.05,false,tree,person,occlusion,high,mask,partial viewing,many small,Training_Stimulus\manysmall_partialViewing_high_tree9.png,mask_img/000000006263.png,training,r,u,134.71885789999942
V3,15,23,Male,Right,22,Training,2.151463899994269,0.025,true,firehydrant,firehydrant,occlusion,low,mask,partial viewing,many small,Training_Stimulus\manysmall_partialViewing_low_firehydrant90.png,mask_img/000000006870.png,training,q,q,138.0637932000027
V3,15,23,Male,Right,23,Training,3.248257699997339,0.025,true,cat,cat,occlusion,control,mask,partial viewing,few large,Training_Stimulus\fewlarge_partialViewing_control_cat432.png,mask_img/000000000438.png,training,i,i,142.39188010000362
V3,15,23,Male,Right,24,Training,1.7890977999995812,0.05,true,banana,banana,occlusion,low,mask,partial viewing,few large,Training_Stimulus\fewlarge_partialViewing_low_banana454.png,mask_img/000000002337.png,training,e,e,145.32934450000175
V3,15,23,Male,Right,25,Training,3.527033799997298,0.1,true,building,building,occlusion,low,mask,partial viewing,few large,Training_Stimulus\fewlarge_partialViewing_low_building24.png,mask_img/000000002822.png,training,w,w,150.29806180000014
V3,15,23,Male,Right,26,Training,5.071895600005519,0.05,true,bird,bird,occlusion,low,mask,partial viewing,few large,Training_Stimulus\fewlarge_partialViewing_low_bird4.png,mask_img/000000002774.png,training,p,p,156.81381330000295
V3,15,23,Male,Right,27,Training,4.307780399998592,0.025,true,banana,banana,occlusion,low,mask,partial viewing,few large,Training_Stimulus\fewlarge_partialViewing_low_banana454.png,mask_img/000000002337.png,training,e,e,162.2670059000011
V3,15,23,Male,Right,28,Training,2.4826513000007253,0.05,true,cat,cat,occlusion,control,mask,partial viewing,few large,Training_Stimulus\fewlarge_partialViewing_control_cat432.png,mask_img/000000000438.png,training,i,i,165.92314759999863
V3,15,23,Male,Right,29,Training,4.23944979999942,0.1,false,tree,bird,occlusion,high,mask,partial viewing,many small,Training_Stimulus\manysmall_partialViewing_high_tree9.png,mask_img/000000006263.png,training,p,u,171.6902007000026
V3,15,23,Male,Right,30,Training,1.613219000006211,0.05,false,bird,cat,occlusion,high,mask,partial viewing,few large,Training_Stimulus\fewlarge_partialViewing_high_bird4.png,mask_img/000000000731.png,training,i,p,174.45557389999885
V3,15,23,Male,Right,31,Training,3.452964099997189,0.1,true,cat,cat,occlusion,control,mask,partial viewing,many small,Training_Stimulus\manysmall_partialViewing_control_cat432.png,mask_img/000000005105.png,training,i,i,179.17445240000234
V3,15,23,Male,Right,32,Training,1.691721300005156,0.05,true,firehydrant,firehydrant,occlusion,low,mask,partial viewing,few large,Training_Stimulus\fewlarge_partialViewing_low_firehydrant90.png,mask_img/000000003225.png,training,q,q,182.39472989999922
V3,15,23,Male,Right,33,Training,5.077593299996806,0.05,false,cat,building,occlusion,low,mask,partial viewing,many small,Training_Stimulus\manysmall_partialViewing_low_cat432.png,mask_img/000000006842.png,training,w,i,188.87917639999796
V3,15,23,Male,Right,34,Training,2.4511905999970622,0.1,true,bus,bus,occlusion,low,mask,partial viewing,few large,Training_Stimulus\fewlarge_partialViewing_low_bus180.png,mask_img/000000002892.png,training,o,o,192.84791779999796
V3,15,23,Male,Right,35,Training,3.250898199999938,0.1,true,building,building,occlusion,high,mask,partial viewing,few large,Training_Stimulus\fewlarge_partialViewing_high_building24.png,mask_img/000000000873.png,training,w,w,197.34318650000205
V3,15,23,Male,Right,36,Training,2.2559863999995287,0.025,false,person,cat,occlusion,low,mask,partial viewing,few large,Training_Stimulus\fewlarge_partialViewing_low_person189.png,mask_img/000000003483.png,training,i,r,200.94431310000073
V3,15,23,Male,Right,37,Training,1.7531903999988572,0.025,true,bird,bird,occlusion,control,mask,partial viewing,few large,Training_Stimulus\fewlarge_partialViewing_control_bird4.png,mask_img/000000000109.png,training,p,p,204.17859560000215
V3,15,23,Male,Right,38,Training,1.6146785000019008,0.1,true,building,building,occlusion,control,mask,partial viewing,many small,Training_Stimulus\manysmall_partialViewing_control_building24.png,mask_img/000000004739.png,training,w,w,207.28801150000072
V3,15,23,Male,Right,39,Training,5.455342699999164,0.05,false,cat,bird,occlusion,low,mask,partial viewing,few large,Training_Stimulus\fewlarge_partialViewing_low_cat432.png,mask_img/000000003084.png,training,p,i,213.9144912999982
V3,15,23,Male,Right,40,Training,1.223529499999131,0.1,true,bird,bird,occlusion,low,mask,partial viewing,few large,Training_Stimulus\fewlarge_partialViewing_low_bird4.png,mask_img/000000002774.png,training,p,p,216.47693060000165
V3,15,23,Male,Right,41,Training,2.4117021999991266,0.1,false,bird,cat,occlusion,high,mask,partial viewing,few large,Training_Stimulus\fewlarge_partialViewing_high_bird4.png,mask_img/000000000731.png,training,i,p,220.3219842000035
V3,15,23,Male,Right,42,Training,1.448798400000669,0.05,true,banana,banana,occlusion,control,mask,partial viewing,few large,Training_Stimulus\fewlarge_partialViewing_control_banana454.png,mask_img/000000000042.png,training,e,e,223.17835090000153
V3,15,23,Male,Right,43,Training,3.630122599999595,0.1,true,cat,cat,occlusion,high,mask,partial viewing,few large,Training_Stimulus\fewlarge_partialViewing_high_cat432.png,mask_img/000000001647.png,training,i,i,228.04528920000303
V3,15,23,Male,Right,44,Training,2.8977393000022857,0.05,true,firehydrant,firehydrant,occlusion,control,mask,partial viewing,many small,Training_Stimulus\manysmall_partialViewing_control_firehydrant90.png,mask_img/000000005131.png,training,q,q,232.38929920000373
V3,15,23,Male,Right,45,Training,5.0702637000067625,0.025,false,bird,tree,occlusion,low,mask,partial viewing,many small,Training_Stimulus\manysmall_partialViewing_low_bird4.png,mask_img/000000006481.png,training,u,p,238.85806949999824
V3,15,23,Male,Right,46,Training,1.2747302999996464,0.05,true,firehydrant,firehydrant,occlusion,high,mask,partial viewing,many small,Training_Stimulus\manysmall_partialViewing_high_firehydrant90.png,mask_img/000000006146.png,training,q,q,241.40504070000316
V3,15,23,Male,Right,47,Training,1.1978146999972523,0.05,false,cat,bird,occlusion,high,mask,partial viewing,many small,Training_Stimulus\manysmall_partialViewing_high_cat432.png,mask_img/000000005862.png,training,p,i,243.71742090000043
V3,15,23,Male,Right,48,Training,1.034675499999139,0.05,false,person,bird,occlusion,low,mask,partial viewing,many small,Training_Stimulus\manysmall_partialViewing_low_person189.png,mask_img/000000007179.png,training,p,r,246.12365220000356
V3,15,23,Male,Right,49,Training,1.6581657999995514,0.1,true,building,building,occlusion,control,mask,partial viewing,few large,Training_Stimulus\fewlarge_partialViewing_control_building24.png,mask_img/000000000312.png,training,w,w,249.0142405000006
V3,15,23,Male,Right,50,Training,2.892701600001601,0.025,false,banana,cat,occlusion,high,mask,partial viewing,many small,Training_Stimulus\manysmall_partialViewing_high_banana454.png,mask_img/000000005359.png,training,i,e,253.45160659999965
V3,15,23,Male,Right,51,Training,2.2428941000034683,0.025,false,cat,bird,occlusion,high,mask,partial viewing,few large,Training_Stimulus\fewlarge_partialViewing_high_cat432.png,mask_img/000000001647.png,training,p,i,257.0626066000041
V3,15,23,Male,Right,52,Training,2.303501399997913,0.025,true,bus,bus,occlusion,high,mask,partial viewing,few large,Training_Stimulus\fewlarge_partialViewing_high_bus180.png,mask_img/000000001053.png,training,o,o,260.8565249000021
V3,15,23,Male,Right,53,Training,2.328187599996454,0.05,false,tree,bird,occlusion,low,mask,partial viewing,many small,Training_Stimulus\manysmall_partialViewing_low_tree9.png,mask_img/000000007325.png,training,p,u,264.63791029999993
V3,15,23,Male,Right,54,Training,2.1246154999971623,0.05,false,person,tree,occlusion,high,mask,partial viewing,many small,Training_Stimulus\manysmall_partialViewing_high_person189.png,mask_img/000000006153.png,training,u,r,268.2628842999984
V3,15,23,Male,Right,55,Training,1.1762249000021257,0.025,true,bird,bird,occlusion,control,mask,partial viewing,many small,Training_Stimulus\manysmall_partialViewing_control_bird4.png,mask_img/000000004642.png,training,p,p,270.56111950000195
V3,15,23,Male,Right,56,Training,2.8674081999997725,0.05,false,tree,building,occlusion,low,mask,partial viewing,few large,Training_Stimulus\fewlarge_partialViewing_low_tree9.png,mask_img/000000003694.png,training,w,u,274.6861598000032
V3,15,23,Male,Right,57,Training,1.6683290999935707,0.05,true,bus,bus,occlusion,high,mask,partial viewing,many small,Training_Stimulus\manysmall_partialViewing_high_bus180.png,mask_img/000000005615.png,training,o,o,277.5610596999977
V3,15,23,Male,Right,58,Training,2.3160908999998355,0.05,true,person,person,occlusion,high,mask,partial viewing,few large,Training_Stimulus\fewlarge_partialViewing_high_person189.png,mask_img/000000001997.png,training,r,r,281.1874375999978
V3,15,23,Male,Right,59,Training,2.237682799997856,0.1,true,person,person,occlusion,low,mask,partial viewing,few large,Training_Stimulus\fewlarge_partialViewing_low_person189.png,mask_img/000000003483.png,training,r,r,284.849908199998
V3,15,23,Male,Right,60,Training,2.4297669000006863,0.05,false,banana,bird,occlusion,high,mask,partial viewing,many small,Training_Stimulus\manysmall_partialViewing_high_banana454.png,mask_img/000000005359.png,training,p,e,288.652694000004
V3,15,23,Male,Right,61,Training,1.7527240999988862,0.025,false,building,cat,occlusion,high,mask,partial viewing,many small,Training_Stimulus\manysmall_partialViewing_high_building24.png,mask_img/000000005574.png,training,i,w,291.8601523000034
V3,15,23,Male,Right,62,Training,1.5179040000002715,0.1,true,bird,bird,occlusion,high,mask,partial viewing,many small,Training_Stimulus\manysmall_partialViewing_high_bird4.png,mask_img/000000005418.png,training,p,p,294.5025220000025
V3,15,23,Male,Right,63,Training,1.702998300002946,0.025,false,banana,bird,occlusion,high,mask,partial viewing,few large,Training_Stimulus\fewlarge_partialViewing_high_banana454.png,mask_img/000000000690.png,training,p,e,297.69004940000013
V3,15,23,Male,Right,64,Training,2.134923500001605,0.025,true,tree,tree,occlusion,control,mask,partial viewing,many small,Training_Stimulus\manysmall_partialViewing_control_tree9.png,mask_img/000000005282.png,training,u,u,301.30101950000244
V3,15,23,Male,Right,65,Training,1.9348185999988345,0.05,true,bus,bus,occlusion,high,mask,partial viewing,few large,Training_Stimulus\fewlarge_partialViewing_high_bus180.png,mask_img/000000001053.png,training,o,o,304.778124000004
V3,15,23,Male,Right,66,Training,1.3971607999992557,0.1,false,banana,bird,occlusion,low,mask,partial viewing,many small,Training_Stimulus\manysmall_partialViewing_low_banana454.png,mask_img/000000006437.png,training,p,e,307.3871872000018
V3,15,23,Male,Right,67,Training,2.427166199995554,0.1,false,person,cat,occlusion,high,mask,partial viewing,many small,Training_Stimulus\manysmall_partialViewing_high_person189.png,mask_img/000000006153.png,training,i,r,311.1301889000024
V3,15,23,Male,Right,68,Training,2.2105441999956383,0.05,false,building,bus,occlusion,high,mask,partial viewing,many small,Training_Stimulus\manysmall_partialViewing_high_building24.png,mask_img/000000005574.png,training,o,w,314.59893379999994
V3,15,23,Male,Right,69,Training,1.299098600000434,0.025,false,banana,bird,occlusion,low,mask,partial viewing,many small,Training_Stimulus\manysmall_partialViewing_low_banana454.png,mask_img/000000006437.png,training,p,e,317.0209060999987
V3,15,23,Male,Right,70,Training,1.5465985999981058,0.025,true,building,building,occlusion,control,mask,partial viewing,few large,Training_Stimulus\fewlarge_partialViewing_control_building24.png,mask_img/000000000312.png,training,w,w,319.98984960000234
V3,15,23,Male,Right,71,Training,2.6106605000022682,0.1,false,person,tree,occlusion,low,mask,partial viewing,many small,Training_Stimulus\manysmall_partialViewing_low_person189.png,mask_img/000000007179.png,training,u,r,324.0367563000036
V3,15,23,Male,Right,72,Training,2.475816099999065,0.05,false,bus,building,occlusion,low,mask,partial viewing,many small,Training_Stimulus\manysmall_partialViewing_low_bus180.png,mask_img/000000006709.png,training,w,o,328.00767669999914
V3,15,23,Male,Right,73,Training,2.3383633000048576,0.1,true,bus,bus,occlusion,high,mask,partial viewing,many small,Training_Stimulus\manysmall_partialViewing_high_bus180.png,mask_img/000000005615.png,training,o,o,331.60142199999973
V3,15,23,Male,Right,74,Training,1.693995099994936,0.1,true,firehydrant,firehydrant,occlusion,low,mask,partial viewing,few large,Training_Stimulus\fewlarge_partialViewing_low_firehydrant90.png,mask_img/000000003225.png,training,q,q,334.648071399999
V3,15,23,Male,Right,75,Training,1.0825695999956224,0.1,true,firehydrant,firehydrant,occlusion,control,mask,partial viewing,few large,Training_Stimulus\fewlarge_partialViewing_control_firehydrant90.png,mask_img/000000000459.png,training,q,q,337.2264368000033
V3,15,23,Male,Right,76,Training,2.2341812000013306,0.025,true,tree,tree,occlusion,control,mask,partial viewing,few large,Training_Stimulus\fewlarge_partialViewing_control_tree9.png,mask_img/000000000626.png,training,u,u,340.99857150000025
V3,15,23,Male,Right,77,Training,1.8334268999969936,0.025,true,person,person,occlusion,high,mask,partial viewing,few large,Training_Stimulus\fewlarge_partialViewing_high_person189.png,mask_img/000000001997.png,training,r,r,344.1858846000032
V3,15,23,Male,Right,78,Training,3.776664899996831,0.025,false,firehydrant,bird,occlusion,high,mask,partial viewing,many small,Training_Stimulus\manysmall_partialViewing_high_firehydrant90.png,mask_img/000000006146.png,training,p,q,349.45847910000157
V3,15,23,Male,Right,79,Training,1.348391100000299,0.025,false,bird,firehydrant,occlusion,high,mask,partial viewing,few large,Training_Stimulus\fewlarge_partialViewing_high_bird4.png,mask_img/000000000731.png,training,q,p,352.1298268000028
V3,15,23,Male,Right,80,Training,1.9060889999964274,0.025,true,bus,bus,occlusion,control,mask,partial viewing,few large,Training_Stimulus\fewlarge_partialViewing_control_bus180.png,mask_img/000000000394.png,training,o,o,355.16154619999725
V3,15,23,Male,Right,81,Training,1.6003493000025628,0.05,true,building,building,occlusion,control,mask,partial viewing,many small,Training_Stimulus\manysmall_partialViewing_control_building24.png,mask_img/000000004739.png,training,w,w,357.86462870000105
V3,15,23,Male,Right,82,Training,1.2521467999977176,0.025,true,firehydrant,firehydrant,occlusion,control,mask,partial viewing,many small,Training_Stimulus\manysmall_partialViewing_control_firehydrant90.png,mask_img/000000005131.png,training,q,q,360.41147920000367
V3,15,23,Male,Right,83,Training,2.084275200002594,0.1,true,tree,tree,occlusion,control,mask,partial viewing,few large,Training_Stimulus\fewlarge_partialViewing_control_tree9.png,mask_img/000000000626.png,training,u,u,363.8671061999994
V3,15,23,Male,Right,84,Training,3.1264756999953534,0.05,false,banana,cat,occlusion,high,mask,partial viewing,few large,Training_Stimulus\fewlarge_partialViewing_high_banana454.png,mask_img/000000000690.png,training,i,e,368.0677575000009
V3,15,23,Male,Right,85,Training,1.8934323000066797,0.05,true,tree,tree,occlusion,control,mask,partial viewing,many small,Training_Stimulus\manysmall_partialViewing_control_tree9.png,mask_img/000000005282.png,training,u,u,371.5052241000012
V3,15,23,Male,Right,86,Training,2.0128538999997545,0.05,true,building,building,occlusion,high,mask,partial viewing,few large,Training_Stimulus\fewlarge_partialViewing_high_building24.png,mask_img/000000000873.png,training,w,w,374.6927349999969
V3,15,23,Male,Right,87,Training,1.1471233000047505,0.1,true,firehydrant,firehydrant,occlusion,high,mask,partial viewing,many small,Training_Stimulus\manysmall_partialViewing_high_firehydrant90.png,mask_img/000000006146.png,training,q,q,376.9271443999969
V3,15,23,Male,Right,88,Training,1.328097899997374,0.025,true,building,building,occlusion,high,mask,partial viewing,few large,Training_Stimulus\fewlarge_partialViewing_high_building24.png,mask_img/000000000873.png,training,w,w,379.60875900000246
V3,15,23,Male,Right,89,Training,1.342884600002435,0.025,true,building,building,occlusion,low,mask,partial viewing,many small,Training_Stimulus\manysmall_partialViewing_low_building24.png,mask_img/000000006489.png,training,w,w,382.3744896999997
V3,15,23,Male,Right,90,Training,1.1101130000024568,0.025,true,building,building,occlusion,low,mask,partial viewing,few large,Training_Stimulus\fewlarge_partialViewing_low_building24.png,mask_img/000000002822.png,training,w,w,384.7963499999969
V3,15,23,Male,Right,91,Training,1.590245399995183,0.025,true,person,person,occlusion,control,mask,partial viewing,few large,Training_Stimulus\fewlarge_partialViewing_control_person189.png,mask_img/000000000595.png,training,r,r,387.5150225999969
V3,15,23,Male,Right,92,Training,1.2670130999977118,0.05,false,person,firehydrant,occlusion,low,mask,partial viewing,few large,Training_Stimulus\fewlarge_partialViewing_low_person189.png,mask_img/000000003483.png,training,q,r,390.0634948000006
V3,15,23,Male,Right,93,Training,2.78374199999962,0.05,false,building,tree,occlusion,low,mask,partial viewing,few large,Training_Stimulus\fewlarge_partialViewing_low_building24.png,mask_img/000000002822.png,training,u,w,394.25093539999943
V3,15,23,Male,Right,94,Training,1.3123893000010867,0.1,true,bird,bird,occlusion,control,mask,partial viewing,few large,Training_Stimulus\fewlarge_partialViewing_control_bird4.png,mask_img/000000000109.png,training,p,p,396.860371200004
V3,15,23,Male,Right,95,Training,2.4579176000042935,0.05,true,bus,bus,occlusion,low,mask,partial viewing,few large,Training_Stimulus\fewlarge_partialViewing_low_bus180.png,mask_img/000000002892.png,training,o,o,400.53360899999825
V3,15,23,Male,Right,96,Training,1.5678315000041039,0.1,true,building,building,occlusion,high,mask,partial viewing,many small,Training_Stimulus\manysmall_partialViewing_high_building24.png,mask_img/000000005574.png,training,w,w,403.20555759999843
V3,15,23,Male,Right,97,Training,1.3328561000016634,0.025,true,firehydrant,firehydrant,occlusion,low,mask,partial viewing,few large,Training_Stimulus\fewlarge_partialViewing_low_firehydrant90.png,mask_img/000000003225.png,training,q,q,405.6428941999984
V3,15,23,Male,Right,98,Training,2.4122418999977526,0.025,true,bus,bus,occlusion,high,mask,partial viewing,many small,Training_Stimulus\manysmall_partialViewing_high_bus180.png,mask_img/000000005615.png,training,o,o,409.38409169999795
V3,15,23,Male,Right,99,Training,7.454611999994086,0.1,false,banana,firehydrant,occlusion,high,mask,partial viewing,few large,Training_Stimulus\fewlarge_partialViewing_high_banana454.png,mask_img/000000000690.png,training,q,e,417.97197230000165
V3,15,23,Male,Right,100,Training,3.6862382000035723,0.05,true,building,building,occlusion,low,mask,partial viewing,many small,Training_Stimulus\manysmall_partialViewing_low_building24.png,mask_img/000000006489.png,training,w,w,422.80151930000284
V3,15,23,Male,Right,101,Training,2.479084499995224,0.025,false,tree,firehydrant,occlusion,high,mask,partial viewing,few large,Training_Stimulus\fewlarge_partialViewing_high_tree9.png,mask_img/000000002197.png,training,q,u,426.8170947000035
V3,15,23,Male,Right,102,Training,2.695568800001638,0.1,true,tree,tree,occlusion,high,mask,partial viewing,few large,Training_Stimulus\fewlarge_partialViewing_high_tree9.png,mask_img/000000002197.png,training,u,u,430.8966664999971
V3,15,23,Male,Right,103,Training,1.3784046000000671,0.1,true,firehydrant,firehydrant,occlusion,control,mask,partial viewing,many small,Training_Stimulus\manysmall_partialViewing_control_firehydrant90.png,mask_img/000000005131.png,training,q,q,433.8185247000001
V3,15,23,Male,Right,104,Training,1.3952656000037678,0.025,true,banana,banana,occlusion,control,mask,partial viewing,few large,Training_Stimulus\fewlarge_partialViewing_control_banana454.png,mask_img/000000000042.png,training,e,e,436.5372830999986
V3,15,23,Male,Right,105,Training,1.1611709999997402,0.05,true,banana,banana,occlusion,control,mask,partial viewing,many small,Training_Stimulus\manysmall_partialViewing_control_banana454.png,mask_img/000000004239.png,training,e,e,439.18412199999875
V3,15,23,Male,Right,106,Training,3.611244899999292,0.05,false,bird,cat,occlusion,low,mask,partial viewing,many small,Training_Stimulus\manysmall_partialViewing_low_bird4.png,mask_img/000000006481.png,training,i,p,444.19634880000376
V3,15,23,Male,Right,107,Training,2.2970283000031486,0.1,true,cat,cat,occlusion,control,mask,partial viewing,few large,Training_Stimulus\fewlarge_partialViewing_control_cat432.png,mask_img/000000000438.png,training,i,i,447.881873600003
V3,15,23,Male,Right,108,Training,1.3409673999994993,0.1,true,banana,banana,occlusion,low,mask,partial viewing,few large,Training_Stimulus\fewlarge_partialViewing_low_banana454.png,mask_img/000000002337.png,training,e,e,450.3356952000031
V3,15,23,Male,Right,109,Training,1.0452690000020084,0.025,false,bird,firehydrant,occlusion,high,mask,partial viewing,many small,Training_Stimulus\manysmall_partialViewing_high_bird4.png,mask_img/000000005418.png,training,q,p,452.4920912000016
V3,15,23,Male,Right,110,Training,2.6789418999978807,0.1,true,bus,bus,occlusion,control,mask,partial viewing,many small,Training_Stimulus\manysmall_partialViewing_control_bus180.png,mask_img/000000004936.png,training,o,o,456.5859816000011
V3,15,23,Male,Right,111,Training,1.261582899998757,0.1,true,building,building,occlusion,low,mask,partial viewing,many small,Training_Stimulus\manysmall_partialViewing_low_building24.png,mask_img/000000006489.png,training,w,w,458.96084410000185
V3,15,23,Male,Right,112,Training,0.9666057000067667,0.05,true,building,building,occlusion,control,mask,partial viewing,few large,Training_Stimulus\fewlarge_partialViewing_control_building24.png,mask_img/000000000312.png,training,w,w,461.00779689999763
V3,15,23,Male,Right,113,Training,1.5854398000010406,0.1,true,banana,banana,occlusion,control,mask,partial viewing,few large,Training_Stimulus\fewlarge_partialViewing_control_banana454.png,mask_img/000000000042.png,training,e,e,464.03906840000127
V3,15,23,Male,Right,114,Training,1.5944163000021945,0.1,false,tree,cat,occlusion,control,mask,partial viewing,many small,Training_Stimulus\manysmall_partialViewing_control_tree9.png,mask_img/000000005282.png,training,i,u,466.6950780999978
V3,15,23,Male,Right,115,Training,1.8712270999967586,0.05,false,bus,cat,occlusion,control,mask,partial viewing,few large,Training_Stimulus\fewlarge_partialViewing_control_bus180.png,mask_img/000000000394.png,training,i,o,470.1015339000005
V3,15,23,Male,Right,116,Training,1.146761100004369,0.025,true,cat,cat,occlusion,high,mask,partial viewing,many small,Training_Stimulus\manysmall_partialViewing_high_cat432.png,mask_img/000000005862.png,training,i,i,472.3523144999999
V3,15,23,Male,Right,117,Training,6.238137899999856,0.025,true,cat,cat,occlusion,control,mask,partial viewing,many small,Training_Stimulus\manysmall_partialViewing_control_cat432.png,mask_img/000000005105.png,training,i,i,479.7117348000029
V3,15,23,Male,Right,118,Training,2.688221500000509,0.025,false,bus,tree,occlusion,low,mask,partial viewing,many small,Training_Stimulus\manysmall_partialViewing_low_bus180.png,mask_img/000000006709.png,training,u,o,483.5709859999988
V3,15,23,Male,Right,119,Training,1.836754000003566,0.1,true,tree,tree,occlusion,low,mask,partial viewing,few large,Training_Stimulus\fewlarge_partialViewing_low_tree9.png,mask_img/000000003694.png,training,u,u,486.8225203999973
V3,15,23,Male,Right,120,Training,1.9438382999942405,0.025,false,cat,firehydrant,occlusion,low,mask,partial viewing,many small,Training_Stimulus\manysmall_partialViewing_low_cat432.png,mask_img/000000006842.png,training,q,i,490.1037445999973
V3,15,23,Male,Right,121,Training,1.69062909999775,0.1,true,person,person,occlusion,control,mask,partial viewing,few large,Training_Stimulus\fewlarge_partialViewing_control_person189.png,mask_img/000000000595.png,training,r,r,493.04100910000125
V3,15,23,Male,Right,122,Training,2.45102439999755,0.05,false,bird,person,occlusion,high,mask,partial viewing,many small,Training_Stimulus\manysmall_partialViewing_high_bird4.png,mask_img/000000005418.png,training,r,p,497.04257620000135
V3,15,23,Male,Right,123,Training,1.9255516999983229,0.1,true,tree,tree,occlusion,low,mask,partial viewing,many small,Training_Stimulus\manysmall_partialViewing_low_tree9.png,mask_img/000000007325.png,training,u,u,500.37083300000086
V3,15,23,Male,Right,124,Training,1.7581496000057086,0.05,true,person,person,occlusion,control,mask,partial viewing,many small,Training_Stimulus\manysmall_partialViewing_control_person189.png,mask_img/000000005142.png,training,r,r,503.2952370999992
V3,15,23,Male,Right,125,Training,1.5396300000065821,0.025,true,firehydrant,firehydrant,occlusion,high,mask,partial viewing,few large,Training_Stimulus\fewlarge_partialViewing_high_firehydrant90.png,mask_img/000000001810.png,training,q,q,506.2014638999972
V3,15,23,Male,Right,126,Training,3.4262344999951893,0.05,false,firehydrant,bird,occlusion,low,mask,partial viewing,many small,Training_Stimulus\manysmall_partialViewing_low_firehydrant90.png,mask_img/000000006870.png,training,p,q,511.14155810000375
V3,15,23,Male,Right,127,Training,1.758355300000403,0.025,false,person,cat,occlusion,high,mask,partial viewing,many small,Training_Stimulus\manysmall_partialViewing_high_person189.png,mask_img/000000006153.png,training,i,r,514.3577425999974
V3,15,23,Male,Right,128,Training,3.3305559999935213,0.025,true,bus,bus,occlusion,control,mask,partial viewing,many small,Training_Stimulus\manysmall_partialViewing_control_bus180.png,mask_img/000000004936.png,training,o,o,519.1389391999983
V3,15,23,Male,Right,129,Training,1.1647844999970403,0.05,true,bus,bus,occlusion,control,mask,partial viewing,many small,Training_Stimulus\manysmall_partialViewing_control_bus180.png,mask_img/000000004936.png,training,o,o,521.5452871000016
V3,15,23,Male,Right,130,Training,2.573666399999638,0.05,true,cat,cat,occlusion,high,mask,partial viewing,few large,Training_Stimulus\fewlarge_partialViewing_high_cat432.png,mask_img/000000001647.png,training,i,i,525.3277210000015
V3,15,23,Male,Right,131,Training,1.6866436999989673,0.1,true,person,person,occlusion,high,mask,partial viewing,few large,Training_Stimulus\fewlarge_partialViewing_high_person189.png,mask_img/000000001997.png,training,r,r,528.3900078000006
V3,15,23,Male,Right,132,Training,3.3241422999999486,0.05,false,banana,cat,occlusion,low,mask,partial viewing,many small,Training_Stimulus\manysmall_partialViewing_low_banana454.png,mask_img/000000006437.png,training,i,e,532.8159218000001
V3,15,23,Male,Right,133,Training,1.1431703000052948,0.1,true,person,person,occlusion,control,mask,partial viewing,many small,Training_Stimulus\manysmall_partialViewing_control_person189.png,mask_img/000000005142.png,training,r,r,535.3471758000014
V3,15,23,Male,Right,134,Training,3.406548200000543,0.05,true,bird,bird,occlusion,control,mask,partial viewing,few large,Training_Stimulus\fewlarge_partialViewing_control_bird4.png,mask_img/000000000109.png,training,p,p,540.2233584999994
V3,15,23,Male,Right,135,Training,2.426218600005086,0.025,false,cat,tree,occlusion,low,mask,partial viewing,few large,Training_Stimulus\fewlarge_partialViewing_low_cat432.png,mask_img/000000003084.png,training,u,i,544.1142226000011
V3,15,23,Male,Right,136,Training,1.1564291000031517,0.05,false,tree,cat,occlusion,high,mask,partial viewing,few large,Training_Stimulus\fewlarge_partialViewing_high_tree9.png,mask_img/000000002197.png,training,i,u,546.6923420000021
V3,15,23,Male,Right,137,Training,1.276100500006578,0.1,false,bird,firehydrant,occlusion,low,mask,partial viewing,many small,Training_Stimulus\manysmall_partialViewing_low_bird4.png,mask_img/000000006481.png,training,q,p,549.0986613999994
V3,15,23,Male,Right,138,Training,1.9135342000008677,0.1,false,cat,bus,occlusion,high,mask,partial viewing,many small,Training_Stimulus\manysmall_partialViewing_high_cat432.png,mask_img/000000005862.png,training,o,i,552.3329787000039
V3,15,23,Male,Right,139,Training,5.3733657999982825,0.05,false,firehydrant,tree,occlusion,high,mask,partial viewing,few large,Training_Stimulus\fewlarge_partialViewing_high_firehydrant90.png,mask_img/000000001810.png,training,u,q,559.178141299999
V3,15,23,Male,Right,140,Training,2.2387098999970476,0.1,true,bird,bird,occlusion,control,mask,partial viewing,many small,Training_Stimulus\manysmall_partialViewing_control_bird4.png,mask_img/000000004642.png,training,p,p,562.9602404999969
V3,15,23,Male,Right,141,Training,1.6040866999974241,0.1,true,firehydrant,firehydrant,occlusion,high,mask,partial viewing,few large,Training_Stimulus\fewlarge_partialViewing_high_firehydrant90.png,mask_img/000000001810.png,training,q,q,566.1161101000034
V3,15,23,Male,Right,142,Training,2.021211100000073,0.025,true,tree,tree,occlusion,low,mask,partial viewing,many small,Training_Stimulus\manysmall_partialViewing_low_tree9.png,mask_img/000000007325.png,training,u,u,569.6164025000035
V3,15,23,Male,Right,143,Training,2.1815526999998838,0.05,true,bird,bird,occlusion,control,mask,partial viewing,many small,Training_Stimulus\manysmall_partialViewing_control_bird4.png,mask_img/000000004642.png,training,p,p,573.1319593000007
V3,15,23,Male,Right,144,Training,3.1568332000024384,0.025,true,bus,bus,occlusion,low,mask,partial viewing,few large,Training_Stimulus\fewlarge_partialViewing_low_bus180.png,mask_img/000000002892.png,training,o,o,577.3820090000008
V3,15,23,Male,Right,1,Training,3.1419006000069203,0.1,false,cat,tree,occlusion,low,mask,partial viewing,few large,Training_Stimulus\fewlarge_partialViewing_low_cat432.png,mask_img/000000003084.png,training,u,i,582.0225021000006
V3,15,23,Male,Right,2,Training,1.0463195999982418,0.025,false,person,tree,occlusion,low,mask,partial viewing,many small,Training_Stimulus\manysmall_partialViewing_low_person189.png,mask_img/000000007179.png,training,u,r,584.3507497000028
V3,15,23,Male,Right,3,Training,1.8344637999980478,0.025,true,tree,tree,occlusion,low,mask,partial viewing,few large,Training_Stimulus\fewlarge_partialViewing_low_tree9.png,mask_img/000000003694.png,training,u,u,587.6318322000006
V3,15,23,Male,Right,4,Training,1.863486300004297,0.1,true,banana,banana,occlusion,control,mask,partial viewing,many small,Training_Stimulus\manysmall_partialViewing_control_banana454.png,mask_img/000000004239.png,training,e,e,590.6649010000037
V3,15,23,Male,Right,5,Training,5.470326399998157,0.1,true,cat,cat,occlusion,low,mask,partial viewing,many small,Training_Stimulus\manysmall_partialViewing_low_cat432.png,mask_img/000000006842.png,training,i,i,597.5086378999986
V3,15,23,Male,Right,6,Training,2.138994900000398,0.05,true,person,person,occlusion,control,mask,partial viewing,few large,Training_Stimulus\fewlarge_partialViewing_control_person189.png,mask_img/000000000595.png,training,r,r,600.8224397000013
V3,15,23,Male,Right,7,Training,1.7564538000005996,0.1,false,bus,building,occlusion,low,mask,partial viewing,many small,Training_Stimulus\manysmall_partialViewing_low_bus180.png,mask_img/000000006709.png,training,w,o,604.1038093000025
V3,15,23,Male,Right,8,Training,2.214350000002014,0.025,true,bird,bird,occlusion,low,mask,partial viewing,few large,Training_Stimulus\fewlarge_partialViewing_low_bird4.png,mask_img/000000002774.png,training,p,p,607.6193464000025
V3,15,23,Male,Right,9,Training,1.7661653999966802,0.025,true,banana,banana,occlusion,control,mask,partial viewing,many small,Training_Stimulus\manysmall_partialViewing_control_banana454.png,mask_img/000000004239.png,training,e,e,610.6504920000007
V3,15,23,Male,Right,10,Training,1.3815285000018775,0.1,false,banana,firehydrant,occlusion,high,mask,partial viewing,many small,Training_Stimulus\manysmall_partialViewing_high_banana454.png,mask_img/000000005359.png,training,q,e,613.4161120999997
V3,15,23,Male,Right,11,Training,2.9927965000024415,0.1,true,bus,bus,occlusion,high,mask,partial viewing,few large,Training_Stimulus\fewlarge_partialViewing_high_bus180.png,mask_img/000000001053.png,training,o,o,617.5568739000009
V3,15,23,Male,Right,12,Training,2.2363582999969367,0.05,true,firehydrant,firehydrant,occlusion,control,mask,partial viewing,few large,Training_Stimulus\fewlarge_partialViewing_control_firehydrant90.png,mask_img/000000000459.png,training,q,q,621.0409139000039
V3,15,23,Male,Right,13,Training,2.2538085999985924,0.1,true,bus,bus,occlusion,control,mask,partial viewing,few large,Training_Stimulus\fewlarge_partialViewing_control_bus180.png,mask_img/000000000394.png,training,o,o,624.697628300004
V3,15,23,Male,Right,14,Training,2.119871900002181,0.025,true,person,person,occlusion,control,mask,partial viewing,many small,Training_Stimulus\manysmall_partialViewing_control_person189.png,mask_img/000000005142.png,training,r,r,628.0909422999976
V3,15,23,Male,Right,15,Training,1.3619710999992094,0.025,true,firehydrant,firehydrant,occlusion,control,mask,partial viewing,few large,Training_Stimulus\fewlarge_partialViewing_control_firehydrant90.png,mask_img/000000000459.png,training,q,q,630.5442283000011
V3,15,23,Male,Right,16,Training,1.7627633999945829,0.05,true,cat,cat,occlusion,control,mask,partial viewing,many small,Training_Stimulus\manysmall_partialViewing_control_cat432.png,mask_img/000000005105.png,training,i,i,633.840819099998
V3,15,23,Male,Right,17,Training,10.648089299997082,0.025,false,tree,NAN,occlusion,high,mask,partial viewing,many small,Training_Stimulus\manysmall_partialViewing_high_tree9.png,mask_img/000000006263.png,training,NAN,u,645.8737656000012
V3,15,23,Male,Right,18,Training,1.9075670000020182,0.05,true,tree,tree,occlusion,control,mask,partial viewing,few large,Training_Stimulus\fewlarge_partialViewing_control_tree9.png,mask_img/000000000626.png,training,u,u,649.0610645999986
V3,15,23,Male,Right,19,Training,2.3178218999964884,0.025,true,building,building,occlusion,control,mask,partial viewing,many small,Training_Stimulus\manysmall_partialViewing_control_building24.png,mask_img/000000004739.png,training,w,w,652.5626034000015
V3,15,23,Male,Right,20,Training,1.217007699997339,0.1,true,firehydrant,firehydrant,occlusion,low,mask,partial viewing,many small,Training_Stimulus\manysmall_partialViewing_low_firehydrant90.png,mask_img/000000006870.png,training,q,q,655.0011997999973
V3,15,23,Male,Right,21,Training,2.160319399998116,0.05,true,tree,tree,occlusion,high,mask,partial viewing,many small,Training_Stimulus\manysmall_partialViewing_high_tree9.png,mask_img/000000006263.png,training,u,u,658.4074919999985
V3,15,23,Male,Right,22,Training,1.3915220999988378,0.025,true,firehydrant,firehydrant,occlusion,low,mask,partial viewing,many small,Training_Stimulus\manysmall_partialViewing_low_firehydrant90.png,mask_img/000000006870.png,training,q,q,660.8762559000024
V3,15,23,Male,Right,23,Training,3.040098699995724,0.025,true,cat,cat,occlusion,control,mask,partial viewing,few large,Training_Stimulus\fewlarge_partialViewing_control_cat432.png,mask_img/000000000438.png,training,i,i,665.0637153999996
V3,15,23,Male,Right,24,Training,3.0265271999960532,0.05,false,banana,bus,occlusion,low,mask,partial viewing,few large,Training_Stimulus\fewlarge_partialViewing_low_banana454.png,mask_img/000000002337.png,training,o,e,669.563759800003
V3,15,23,Male,Right,25,Training,1.453052699995169,0.1,true,building,building,occlusion,low,mask,partial viewing,few large,Training_Stimulus\fewlarge_partialViewing_low_building24.png,mask_img/000000002822.png,training,w,w,672.5500398000004
V3,15,23,Male,Right,26,Training,2.477514699996391,0.05,true,bird,bird,occlusion,low,mask,partial viewing,few large,Training_Stimulus\fewlarge_partialViewing_low_bird4.png,mask_img/000000002774.png,training,p,p,676.2843942000036
V3,15,23,Male,Right,27,Training,1.5741800999967381,0.025,false,banana,firehydrant,occlusion,low,mask,partial viewing,few large,Training_Stimulus\fewlarge_partialViewing_low_banana454.png,mask_img/000000002337.png,training,q,e,679.4092247000008
V3,15,23,Male,Right,28,Training,1.6243258999966201,0.05,true,cat,cat,occlusion,control,mask,partial viewing,few large,Training_Stimulus\fewlarge_partialViewing_control_cat432.png,mask_img/000000000438.png,training,i,i,682.3780859000035
V3,15,23,Male,Right,29,Training,1.4066525000016554,0.1,false,tree,cat,occlusion,high,mask,partial viewing,many small,Training_Stimulus\manysmall_partialViewing_high_tree9.png,mask_img/000000006263.png,training,i,u,684.8662569000007
V3,15,23,Male,Right,30,Training,1.0693128000057186,0.05,false,bird,cat,occlusion,high,mask,partial viewing,few large,Training_Stimulus\fewlarge_partialViewing_high_bird4.png,mask_img/000000000731.png,training,i,p,687.0508530000006
V3,15,23,Male,Right,31,Training,1.8546726999993552,0.1,true,cat,cat,occlusion,control,mask,partial viewing,many small,Training_Stimulus\manysmall_partialViewing_control_cat432.png,mask_img/000000005105.png,training,i,i,690.4103221000041
V3,15,23,Male,Right,32,Training,1.2356583000000683,0.05,true,firehydrant,firehydrant,occlusion,low,mask,partial viewing,few large,Training_Stimulus\fewlarge_partialViewing_low_firehydrant90.png,mask_img/000000003225.png,training,q,q,692.941490199999
V3,15,23,Male,Right,33,Training,2.5317945999995572,0.05,false,cat,tree,occlusion,low,mask,partial viewing,many small,Training_Stimulus\manysmall_partialViewing_low_cat432.png,mask_img/000000006842.png,training,u,i,696.9567889000027
V3,15,23,Male,Right,34,Training,1.8903238999992027,0.1,true,bus,bus,occlusion,low,mask,partial viewing,few large,Training_Stimulus\fewlarge_partialViewing_low_bus180.png,mask_img/000000002892.png,training,o,o,700.0828484000012
V3,15,23,Male,Right,35,Training,1.6488345000034315,0.1,true,building,building,occlusion,high,mask,partial viewing,few large,Training_Stimulus\fewlarge_partialViewing_high_building24.png,mask_img/000000000873.png,training,w,w,702.9735456999988
V3,15,23,Male,Right,36,Training,1.095345499998075,0.025,false,person,cat,occlusion,low,mask,partial viewing,few large,Training_Stimulus\fewlarge_partialViewing_low_person189.png,mask_img/000000003483.png,training,i,r,705.3798460000035
V3,15,23,Male,Right,37,Training,1.1587914999981876,0.025,true,bird,bird,occlusion,control,mask,partial viewing,few large,Training_Stimulus\fewlarge_partialViewing_control_bird4.png,mask_img/000000000109.png,training,p,p,707.8485323999994
V3,15,23,Male,Right,38,Training,1.5709330999961821,0.1,true,building,building,occlusion,control,mask,partial viewing,many small,Training_Stimulus\manysmall_partialViewing_control_building24.png,mask_img/000000004739.png,training,w,w,710.7707872000028
V3,15,23,Male,Right,39,Training,1.3874888999998802,0.05,false,cat,bus,occlusion,low,mask,partial viewing,few large,Training_Stimulus\fewlarge_partialViewing_low_cat432.png,mask_img/000000003084.png,training,o,i,713.5051825999981
V3,15,23,Male,Right,40,Training,2.4850645999977132,0.1,true,bird,bird,occlusion,low,mask,partial viewing,few large,Training_Stimulus\fewlarge_partialViewing_low_bird4.png,mask_img/000000002774.png,training,p,p,717.081080099997
V3,15,23,Male,Right,41,Training,2.925685700000031,0.1,false,bird,tree,occlusion,high,mask,partial viewing,few large,Training_Stimulus\fewlarge_partialViewing_high_bird4.png,mask_img/000000000731.png,training,u,p,721.3510642999972
V3,15,23,Male,Right,42,Training,2.673984400003974,0.05,true,banana,banana,occlusion,control,mask,partial viewing,few large,Training_Stimulus\fewlarge_partialViewing_control_banana454.png,mask_img/000000000042.png,training,e,e,725.4915562000024
V3,15,23,Male,Right,43,Training,3.0105308999991394,0.1,true,cat,cat,occlusion,high,mask,partial viewing,few large,Training_Stimulus\fewlarge_partialViewing_high_cat432.png,mask_img/000000001647.png,training,i,i,729.8666692999977
V3,15,23,Male,Right,44,Training,1.2839587999987998,0.05,true,firehydrant,firehydrant,occlusion,control,mask,partial viewing,many small,Training_Stimulus\manysmall_partialViewing_control_firehydrant90.png,mask_img/000000005131.png,training,q,q,732.5386003000021
V3,15,23,Male,Right,45,Training,1.5587979999982053,0.025,false,bird,bus,occlusion,low,mask,partial viewing,many small,Training_Stimulus\manysmall_partialViewing_low_bird4.png,mask_img/000000006481.png,training,o,p,735.5854499999987
V3,15,23,Male,Right,46,Training,1.5247933999999077,0.05,false,firehydrant,bus,occlusion,high,mask,partial viewing,many small,Training_Stimulus\manysmall_partialViewing_high_firehydrant90.png,mask_img/000000006146.png,training,o,q,738.4448132999969
V3,15,23,Male,Right,47,Training,1.3701092999981483,0.05,false,cat,firehydrant,occlusion,high,mask,partial viewing,many small,Training_Stimulus\manysmall_partialViewing_high_cat432.png,mask_img/000000005862.png,training,q,i,741.1663486999969
V3,15,23,Male,Right,48,Training,1.0720798000038485,0.05,false,person,firehydrant,occlusion,low,mask,partial viewing,many small,Training_Stimulus\manysmall_partialViewing_low_person189.png,mask_img/000000007179.png,training,q,r,743.8042128000016
V3,15,23,Male,Right,49,Training,1.4571405000024242,0.1,true,building,building,occlusion,control,mask,partial viewing,few large,Training_Stimulus\fewlarge_partialViewing_control_building24.png,mask_img/000000000312.png,training,w,w,746.6229390000008
V3,15,23,Male,Right,50,Training,1.1511945000020205,0.025,false,banana,cat,occlusion,high,mask,partial viewing,many small,Training_Stimulus\manysmall_partialViewing_high_banana454.png,mask_img/000000005359.png,training,i,e,748.9353977999999
V3,15,23,Male,Right,51,Training,3.1875264000045718,0.025,true,cat,cat,occlusion,high,mask,partial viewing,few large,Training_Stimulus\fewlarge_partialViewing_high_cat432.png,mask_img/000000001647.png,training,i,i,753.6384965000034
V3,15,23,Male,Right,52,Training,2.509639400006563,0.025,true,bus,bus,occlusion,high,mask,partial viewing,few large,Training_Stimulus\fewlarge_partialViewing_high_bus180.png,mask_img/000000001053.png,training,o,o,757.7010154000018
V3,15,23,Male,Right,53,Training,1.8384015999981784,0.05,true,tree,tree,occlusion,low,mask,partial viewing,many small,Training_Stimulus\manysmall_partialViewing_low_tree9.png,mask_img/000000007325.png,training,u,u,760.9992980000025
V3,15,23,Male,Right,54,Training,2.982330599996203,0.05,false,person,firehydrant,occlusion,high,mask,partial viewing,many small,Training_Stimulus\manysmall_partialViewing_high_person189.png,mask_img/000000006153.png,training,q,r,765.280552199998
V3,15,23,Male,Right,55,Training,1.4546754999973928,0.025,true,bird,bird,occlusion,control,mask,partial viewing,many small,Training_Stimulus\manysmall_partialViewing_control_bird4.png,mask_img/000000004642.png,training,p,p,767.9521535000022
V3,15,23,Male,Right,56,Training,1.950531199996476,0.05,true,tree,tree,occlusion,low,mask,partial viewing,few large,Training_Stimulus\fewlarge_partialViewing_low_tree9.png,mask_img/000000003694.png,training,u,u,771.2663178000003
V3,15,23,Male,Right,57,Training,4.734830000001239,0.05,false,bus,cat,occlusion,high,mask,partial viewing,many small,Training_Stimulus\manysmall_partialViewing_high_bus180.png,mask_img/000000005615.png,training,i,o,777.4770416000028
V3,15,23,Male,Right,58,Training,1.8516309999977238,0.05,true,person,person,occlusion,high,mask,partial viewing,few large,Training_Stimulus\fewlarge_partialViewing_high_person189.png,mask_img/000000001997.png,training,r,r,780.6113261999999
V3,15,23,Male,Right,59,Training,1.4842380999980378,0.1,false,person,firehydrant,occlusion,low,mask,partial viewing,few large,Training_Stimulus\fewlarge_partialViewing_low_person189.png,mask_img/000000003483.png,training,q,r,783.5490563999992
V3,15,23,Male,Right,60,Training,0.8544722000006004,0.05,false,banana,cat,occlusion,high,mask,partial viewing,many small,Training_Stimulus\manysmall_partialViewing_high_banana454.png,mask_img/000000005359.png,training,i,e,785.6427910999992
V3,15,23,Male,Right,61,Training,1.4387358999956632,0.025,false,building,bus,occlusion,high,mask,partial viewing,many small,Training_Stimulus\manysmall_partialViewing_high_building24.png,mask_img/000000005574.png,training,o,w,788.2053506000011
V3,15,23,Male,Right,62,Training,2.2240374000029988,0.1,false,bird,tree,occlusion,high,mask,partial viewing,many small,Training_Stimulus\manysmall_partialViewing_high_bird4.png,mask_img/000000005418.png,training,u,p,791.628572900001
V3,15,23,Male,Right,63,Training,0.9484112999998615,0.025,false,banana,firehydrant,occlusion,high,mask,partial viewing,few large,Training_Stimulus\fewlarge_partialViewing_high_banana454.png,mask_img/000000000690.png,training,q,e,793.7378968999983
V3,15,23,Male,Right,64,Training,1.766283899996779,0.025,true,tree,tree,occlusion,control,mask,partial viewing,many small,Training_Stimulus\manysmall_partialViewing_control_tree9.png,mask_img/000000005282.png,training,u,u,796.9567400000014
V3,15,23,Male,Right,65,Training,3.473720100002538,0.05,true,bus,bus,occlusion,high,mask,partial viewing,few large,Training_Stimulus\fewlarge_partialViewing_high_bus180.png,mask_img/000000001053.png,training,o,o,801.5987776000038
V3,15,23,Male,Right,66,Training,1.9390532999968855,0.1,false,banana,tree,occlusion,low,mask,partial viewing,many small,Training_Stimulus\manysmall_partialViewing_low_banana454.png,mask_img/000000006437.png,training,u,e,804.770500700004
V3,15,23,Male,Right,67,Training,1.3587820999964606,0.1,false,person,firehydrant,occlusion,high,mask,partial viewing,many small,Training_Stimulus\manysmall_partialViewing_high_person189.png,mask_img/000000006153.png,training,q,r,807.5793751000019
V3,15,23,Male,Right,68,Training,2.3244419999973616,0.05,false,building,bus,occlusion,high,mask,partial viewing,many small,Training_Stimulus\manysmall_partialViewing_high_building24.png,mask_img/000000005574.png,training,o,w,811.3807039000021
V3,15,23,Male,Right,69,Training,0.9733879000050365,0.025,false,banana,building,occlusion,low,mask,partial viewing,many small,Training_Stimulus\manysmall_partialViewing_low_banana454.png,mask_img/000000006437.png,training,w,e,813.8663916000005
V3,15,23,Male,Right,70,Training,1.7644066000066232,0.025,true,building,building,occlusion,control,mask,partial viewing,few large,Training_Stimulus\fewlarge_partialViewing_control_building24.png,mask_img/000000000312.png,training,w,w,817.0072845000032
V3,15,23,Male,Right,71,Training,1.0539592999994056,0.1,false,person,cat,occlusion,low,mask,partial viewing,many small,Training_Stimulus\manysmall_partialViewing_low_person189.png,mask_img/000000007179.png,training,i,r,819.3352918000019
V3,15,23,Male,Right,72,Training,1.7427387999996427,0.05,true,bus,bus,occlusion,low,mask,partial viewing,many small,Training_Stimulus\manysmall_partialViewing_low_bus180.png,mask_img/000000006709.png,training,o,o,822.4133367000031
V3,15,23,Male,Right,73,Training,0.8328140000012354,0.1,true,bus,bus,occlusion,high,mask,partial viewing,many small,Training_Stimulus\manysmall_partialViewing_high_bus180.png,mask_img/000000005615.png,training,o,o,824.413404699997
V3,15,23,Male,Right,74,Training,2.4075375000029453,0.1,true,firehydrant,firehydrant,occlusion,low,mask,partial viewing,few large,Training_Stimulus\fewlarge_partialViewing_low_firehydrant90.png,mask_img/000000003225.png,training,q,q,828.3250660999984
V3,15,23,Male,Right,75,Training,1.0455241999952705,0.1,true,firehydrant,firehydrant,occlusion,control,mask,partial viewing,few large,Training_Stimulus\fewlarge_partialViewing_control_firehydrant90.png,mask_img/000000000459.png,training,q,q,830.5129874999984
V3,15,23,Male,Right,76,Training,1.6694017999980133,0.025,true,tree,tree,occlusion,control,mask,partial viewing,few large,Training_Stimulus\fewlarge_partialViewing_control_tree9.png,mask_img/000000000626.png,training,u,u,833.2632916000002
V3,15,23,Male,Right,77,Training,1.612877200001094,0.025,true,person,person,occlusion,high,mask,partial viewing,few large,Training_Stimulus\fewlarge_partialViewing_high_person189.png,mask_img/000000001997.png,training,r,r,835.9922178999986
V3,15,23,Male,Right,78,Training,2.705428400004166,0.025,false,firehydrant,cat,occlusion,high,mask,partial viewing,many small,Training_Stimulus\manysmall_partialViewing_high_firehydrant90.png,mask_img/000000006146.png,training,i,q,840.210866100002
V3,15,23,Male,Right,79,Training,1.1002217000059318,0.025,false,bird,firehydrant,occlusion,high,mask,partial viewing,few large,Training_Stimulus\fewlarge_partialViewing_high_bird4.png,mask_img/000000000731.png,training,q,p,842.632918000003
V3,15,23,Male,Right,80,Training,2.5743367000031867,0.025,true,bus,bus,occlusion,control,mask,partial viewing,few large,Training_Stimulus\fewlarge_partialViewing_control_bus180.png,mask_img/000000000394.png,training,o,o,846.6015517999986
V3,15,23,Male,Right,81,Training,1.3314329999993788,0.05,true,building,building,occlusion,control,mask,partial viewing,many small,Training_Stimulus\manysmall_partialViewing_control_building24.png,mask_img/000000004739.png,training,w,w,849.226539000003
V3,15,23,Male,Right,82,Training,1.6450678999972297,0.025,true,firehydrant,firehydrant,occlusion,control,mask,partial viewing,many small,Training_Stimulus\manysmall_partialViewing_control_firehydrant90.png,mask_img/000000005131.png,training,q,q,851.962124800004
V3,15,23,Male,Right,83,Training,2.017119100004493,0.1,false,tree,cat,occlusion,control,mask,partial viewing,few large,Training_Stimulus\fewlarge_partialViewing_control_tree9.png,mask_img/000000000626.png,training,i,u,855.5246625
V3,15,23,Male,Right,84,Training,2.6259860999998637,0.05,false,banana,tree,occlusion,high,mask,partial viewing,few large,Training_Stimulus\fewlarge_partialViewing_high_banana454.png,mask_img/000000000690.png,training,u,e,859.4934140000041
V3,15,23,Male,Right,85,Training,1.8221352999971714,0.05,true,tree,tree,occlusion,control,mask,partial viewing,many small,Training_Stimulus\manysmall_partialViewing_control_tree9.png,mask_img/000000005282.png,training,u,u,862.519140999997
V3,15,23,Male,Right,86,Training,1.374164799999562,0.05,true,building,building,occlusion,high,mask,partial viewing,few large,Training_Stimulus\fewlarge_partialViewing_high_building24.png,mask_img/000000000873.png,training,w,w,865.0035181999992
V3,15,23,Male,Right,87,Training,1.0774291999987327,0.1,true,firehydrant,firehydrant,occlusion,high,mask,partial viewing,many small,Training_Stimulus\manysmall_partialViewing_high_firehydrant90.png,mask_img/000000006146.png,training,q,q,867.5035795000003
V3,15,23,Male,Right,88,Training,2.810023399993952,0.025,true,building,building,occlusion,high,mask,partial viewing,few large,Training_Stimulus\fewlarge_partialViewing_high_building24.png,mask_img/000000000873.png,training,w,w,871.8009701999981
V3,15,23,Male,Right,89,Training,1.0816913999951794,0.025,true,building,building,occlusion,low,mask,partial viewing,many small,Training_Stimulus\manysmall_partialViewing_low_building24.png,mask_img/000000006489.png,training,w,w,874.0508805999998
V3,15,23,Male,Right,90,Training,1.0743880000009085,0.025,true,building,building,occlusion,low,mask,partial viewing,few large,Training_Stimulus\fewlarge_partialViewing_low_building24.png,mask_img/000000002822.png,training,w,w,876.3477099000011
V3,15,23,Male,Right,91,Training,1.700081399998453,0.025,true,person,person,occlusion,control,mask,partial viewing,few large,Training_Stimulus\fewlarge_partialViewing_control_person189.png,mask_img/000000000595.png,training,r,r,879.4727939000004
V3,15,23,Male,Right,92,Training,1.1783113999990746,0.05,false,person,firehydrant,occlusion,low,mask,partial viewing,few large,Training_Stimulus\fewlarge_partialViewing_low_person189.png,mask_img/000000003483.png,training,q,r,882.1446190999995
V3,15,23,Male,Right,93,Training,1.2422940000033122,0.05,true,building,building,occlusion,low,mask,partial viewing,few large,Training_Stimulus\fewlarge_partialViewing_low_building24.png,mask_img/000000002822.png,training,w,w,884.9259043999991
V3,15,23,Male,Right,94,Training,1.1579240999999456,0.1,true,bird,bird,occlusion,control,mask,partial viewing,few large,Training_Stimulus\fewlarge_partialViewing_control_bird4.png,mask_img/000000000109.png,training,p,p,887.1913230999999
V3,15,23,Male,Right,95,Training,2.040998299999046,0.05,true,bus,bus,occlusion,low,mask,partial viewing,few large,Training_Stimulus\fewlarge_partialViewing_low_bus180.png,mask_img/000000002892.png,training,o,o,890.5992568000001
V3,15,23,Male,Right,96,Training,1.5427607000019634,0.1,true,building,building,occlusion,high,mask,partial viewing,many small,Training_Stimulus\manysmall_partialViewing_high_building24.png,mask_img/000000005574.png,training,w,w,893.5413222999996
V3,15,23,Male,Right,97,Training,1.6972467000014149,0.025,true,firehydrant,firehydrant,occlusion,low,mask,partial viewing,few large,Training_Stimulus\fewlarge_partialViewing_low_firehydrant90.png,mask_img/000000003225.png,training,q,q,896.5527275999993
V3,15,23,Male,Right,98,Training,1.9120382000037353,0.025,true,bus,bus,occlusion,high,mask,partial viewing,many small,Training_Stimulus\manysmall_partialViewing_high_bus180.png,mask_img/000000005615.png,training,o,o,899.8936001000038
V3,15,23,Male,Right,99,Training,3.8296129000009387,0.1,false,banana,tree,occlusion,high,mask,partial viewing,few large,Training_Stimulus\fewlarge_partialViewing_high_banana454.png,mask_img/000000000690.png,training,u,e,905.084930099998
V3,15,23,Male,Right,100,Training,1.244451400001708,0.05,true,building,building,occlusion,low,mask,partial viewing,many small,Training_Stimulus\manysmall_partialViewing_low_building24.png,mask_img/000000006489.png,training,w,w,907.8504896000013
V3,15,23,Male,Right,101,Training,2.014677799998026,0.025,true,tree,tree,occlusion,high,mask,partial viewing,few large,Training_Stimulus\fewlarge_partialViewing_high_tree9.png,mask_img/000000002197.png,training,u,u,910.9326946000001
V3,15,23,Male,Right,102,Training,1.0862874000013107,0.1,true,tree,tree,occlusion,high,mask,partial viewing,few large,Training_Stimulus\fewlarge_partialViewing_high_tree9.png,mask_img/000000002197.png,training,u,u,913.1487341000029
V3,15,23,Male,Right,103,Training,1.250966100000369,0.1,true,firehydrant,firehydrant,occlusion,control,mask,partial viewing,many small,Training_Stimulus\manysmall_partialViewing_control_firehydrant90.png,mask_img/000000005131.png,training,q,q,915.4768164999987
V3,15,23,Male,Right,104,Training,2.4694470999966143,0.025,true,banana,banana,occlusion,control,mask,partial viewing,few large,Training_Stimulus\fewlarge_partialViewing_control_banana454.png,mask_img/000000000042.png,training,e,e,919.4924733000007
V3,15,23,Male,Right,105,Training,1.3801702999990084,0.05,true,banana,banana,occlusion,control,mask,partial viewing,many small,Training_Stimulus\manysmall_partialViewing_control_banana454.png,mask_img/000000004239.png,training,e,e,922.3206180999987
V3,15,23,Male,Right,106,Training,2.409450500003004,0.05,false,bird,tree,occlusion,low,mask,partial viewing,many small,Training_Stimulus\manysmall_partialViewing_low_bird4.png,mask_img/000000006481.png,training,u,p,926.2282049999994
V3,15,23,Male,Right,107,Training,2.8282261000058497,0.1,true,cat,cat,occlusion,control,mask,partial viewing,few large,Training_Stimulus\fewlarge_partialViewing_control_cat432.png,mask_img/000000000438.png,training,i,i,930.4938556999987
V3,15,23,Male,Right,108,Training,1.344621800002642,0.1,true,banana,banana,occlusion,low,mask,partial viewing,few large,Training_Stimulus\fewlarge_partialViewing_low_banana454.png,mask_img/000000002337.png,training,e,e,933.0684870999976
V3,15,23,Male,Right,109,Training,1.2274077999973088,0.025,false,bird,cat,occlusion,high,mask,partial viewing,many small,Training_Stimulus\manysmall_partialViewing_high_bird4.png,mask_img/000000005418.png,training,i,p,935.6779785000035
V3,15,23,Male,Right,110,Training,1.9370825000005425,0.1,true,bus,bus,occlusion,control,mask,partial viewing,many small,Training_Stimulus\manysmall_partialViewing_control_bus180.png,mask_img/000000004936.png,training,o,o,939.0372352999984
V3,15,23,Male,Right,111,Training,2.748417300004803,0.1,false,building,bus,occlusion,low,mask,partial viewing,many small,Training_Stimulus\manysmall_partialViewing_low_building24.png,mask_img/000000006489.png,training,o,w,943.3199204999983
V3,15,23,Male,Right,112,Training,1.4283967000010307,0.05,true,building,building,occlusion,control,mask,partial viewing,few large,Training_Stimulus\fewlarge_partialViewing_control_building24.png,mask_img/000000000312.png,training,w,w,946.0073159000021
V3,15,23,Male,Right,113,Training,1.6682806000026176,0.1,true,banana,banana,occlusion,control,mask,partial viewing,few large,Training_Stimulus\fewlarge_partialViewing_control_banana454.png,mask_img/000000000042.png,training,e,e,948.7727844999972
V3,15,23,Male,Right,114,Training,2.242822799998976,0.1,true,tree,tree,occlusion,control,mask,partial viewing,many small,Training_Stimulus\manysmall_partialViewing_control_tree9.png,mask_img/000000005282.png,training,u,u,952.1492932999972
V3,15,23,Male,Right,115,Training,2.293050799999037,0.05,true,bus,bus,occlusion,control,mask,partial viewing,few large,Training_Stimulus\fewlarge_partialViewing_control_bus180.png,mask_img/000000000394.png,training,o,o,955.9773977000004
V3,15,23,Male,Right,116,Training,1.8315653000026941,0.025,true,cat,cat,occlusion,high,mask,partial viewing,many small,Training_Stimulus\manysmall_partialViewing_high_cat432.png,mask_img/000000005862.png,training,i,i,958.9149055000016
V3,15,23,Male,Right,117,Training,1.5923185000065132,0.025,true,cat,cat,occlusion,control,mask,partial viewing,many small,Training_Stimulus\manysmall_partialViewing_control_cat432.png,mask_img/000000005105.png,training,i,i,961.6800930000027
V3,15,23,Male,Right,118,Training,3.0224846999990405,0.025,true,bus,bus,occlusion,low,mask,partial viewing,many small,Training_Stimulus\manysmall_partialViewing_low_bus180.png,mask_img/000000006709.png,training,o,o,966.056196700003
V3,15,23,Male,Right,119,Training,1.5604728999969666,0.1,true,tree,tree,occlusion,low,mask,partial viewing,few large,Training_Stimulus\fewlarge_partialViewing_low_tree9.png,mask_img/000000003694.png,training,u,u,968.8218559000015
V3,15,23,Male,Right,1,Block 1,1.4755924999990384,0.05,true,building,building,occlusion,control,mask,partial viewing,many small,Stimulus\all_stim\occlusion\partialviewing\manysmall\control\manysmall_partialViewing_control_building2.png,mask_img/000000035864.png,experiment,w,w,1015.9499323999989
V3,15,23,Male,Right,2,Block 1,2.065541399999347,0.025,false,bird,tree,occlusion,low,mask,partial viewing,few large,Stimulus\all_stim\occlusion\partialviewing\fewlarge\low\fewlarge_partialViewing_low_bird9.png,mask_img/000000024530.png,experiment,u,p,1018.862509300001
V3,15,23,Male,Right,3,Block 1,0.9815411000017775,0.025,false,firehydrant,cat,occlusion,high,mask,partial viewing,many small,Stimulus\all_stim\occlusion\partialviewing\manysmall\high\manysmall_partialViewing_high_firehydrant7.png,mask_img/000000050790.png,experiment,i,q,1020.8379840999987
V3,15,23,Male,Right,4,Block 1,1.3268687000017962,0.025,true,firehydrant,firehydrant,occlusion,control,mask,partial viewing,many small,Stimulus\all_stim\occlusion\partialviewing\manysmall\control\manysmall_partialViewing_control_firehydrant10.png,mask_img/000000039053.png,experiment,q,q,1023.1984005999984
V3,15,23,Male,Right,5,Block 1,1.42619150000246,0.1,false,bird,bus,occlusion,low,mask,partial viewing,many small,Stimulus\all_stim\occlusion\partialviewing\manysmall\low\manysmall_partialViewing_low_bird6.png,mask_img/000000056007.png,experiment,o,p,1025.5116106999994
V3,15,23,Male,Right,6,Block 1,2.0086538000032306,0.1,true,tree,tree,occlusion,high,mask,partial viewing,few large,Stimulus\all_stim\occlusion\partialviewing\fewlarge\high\fewlarge_partialViewing_high_tree6.png,mask_img/000000022142.png,experiment,u,u,1028.1903678000017
V3,15,23,Male,Right,7,Block 1,1.519064599997364,0.025,true,bus,bus,occlusion,low,mask,partial viewing,many small,Stimulus\all_stim\occlusion\partialviewing\manysmall\low\manysmall_partialViewing_low_bus1.png,mask_img/000000058232.png,experiment,o,o,1030.4783007000005
V3,15,23,Male,Right,8,Block 1,1.6790729999993346,0.05,true,cat,cat,occlusion,high,mask,partial viewing,few large,Stimulus\all_stim\occlusion\partialviewing\fewlarge\high\fewlarge_partialViewing_high_cat4.png,mask_img/000000017364.png,experiment,i,i,1033.2702948000006
V3,15,23,Male,Right,9,Block 1,1.7960125999961747,0.025,false,cat,tree,occlusion,high,mask,partial viewing,many small,Stimulus\all_stim\occlusion\partialviewing\manysmall\high\manysmall_partialViewing_high_cat3.png,mask_img/000000049254.png,experiment,u,i,1035.894126500003
V3,15,23,Male,Right,10,Block 1,1.0311547000019345,0.025,false,bird,tree,occlusion,low,mask,partial viewing,few large,Stimulus\all_stim\occlusion\partialviewing\fewlarge\low\fewlarge_partialViewing_low_bird1.png,mask_img/000000023984.png,experiment,u,p,1037.5900495000024
V3,15,23,Male,Right,11,Block 1,3.6124656000029063,0.1,false,banana,bus,occlusion,high,mask,partial viewing,many small,Stimulus\all_stim\occlusion\partialviewing\manysmall\high\manysmall_partialViewing_high_banana2.png,mask_img/000000042408.png,experiment,o,e,1041.958284500004
V3,15,23,Male,Right,12,Block 1,0.9690537000060431,0.05,true,bus,bus,occlusion,high,mask,partial viewing,many small,Stimulus\all_stim\occlusion\partialviewing\manysmall\high\manysmall_partialViewing_high_bus7.png,mask_img/000000047471.png,experiment,o,o,1043.6220926000024
V3,15,23,Male,Right,13,Block 1,1.5857583000033628,0.05,true,building,building,occlusion,control,mask,partial viewing,many small,Stimulus\all_stim\occlusion\partialviewing\manysmall\control\manysmall_partialViewing_control_building10.png,mask_img/000000035857.png,experiment,w,w,1046.0060410000006
V3,15,23,Male,Right,14,Block 1,1.7756938000020455,0.1,true,banana,banana,occlusion,low,mask,partial viewing,few large,Stimulus\all_stim\occlusion\partialviewing\fewlarge\low\fewlarge_partialViewing_low_banana4.png,mask_img/000000023015.png,experiment,e,e,1048.566296500001
V3,15,23,Male,Right,15,Block 1,1.3425963000045158,0.025,false,building,cat,occlusion,low,mask,partial viewing,many small,Stimulus\all_stim\occlusion\partialviewing\manysmall\low\manysmall_partialViewing_low_building10.png,mask_img/000000057068.png,experiment,i,w,1050.6383319000015
V3,15,23,Male,Right,16,Block 1,2.147978000000876,0.05,false,cat,tree,occlusion,high,mask,partial viewing,few large,Stimulus\all_stim\occlusion\partialviewing\fewlarge\high\fewlarge_partialViewing_high_cat7.png,mask_img/000000017580.png,experiment,u,i,1053.4462168000027
V3,15,23,Male,Right,17,Block 1,1.0146737999966717,0.025,false,banana,cat,occlusion,low,mask,partial viewing,many small,Stimulus\all_stim\occlusion\partialviewing\manysmall\low\manysmall_partialViewing_low_banana1.png,mask_img/000000054532.png,experiment,i,e,1055.3898627000017
V3,15,23,Male,Right,18,Block 1,1.7167095000040717,0.05,true,bird,bird,occlusion,control,mask,partial viewing,few large,Stimulus\all_stim\occlusion\partialviewing\fewlarge\control\fewlarge_partialViewing_control_bird9.png,mask_img/000000002892.png,experiment,p,p,1057.8221059999996
V3,15,23,Male,Right,19,Block 1,1.4162264999977197,0.025,false,cat,tree,occlusion,low,mask,partial viewing,few large,Stimulus\all_stim\occlusion\partialviewing\fewlarge\low\fewlarge_partialViewing_low_cat4.png,mask_img/000000027675.png,experiment,u,i,1060.246581200001
V3,15,23,Male,Right,20,Block 1,1.27900149999914,0.05,true,building,building,occlusion,control,mask,partial viewing,few large,Stimulus\all_stim\occlusion\partialviewing\fewlarge\control\fewlarge_partialViewing_control_building3.png,mask_img/000000003694.png,experiment,w,w,1062.3341301999972
V3,15,23,Male,Right,21,Block 1,1.2157485999996425,0.05,false,person,cat,occlusion,high,mask,partial viewing,many small,Stimulus\all_stim\occlusion\partialviewing\manysmall\high\manysmall_partialViewing_high_person3.png,mask_img/000000051880.png,experiment,i,r,1064.6544479000004
V3,15,23,Male,Right,22,Block 1,1.4649733000042033,0.025,false,person,firehydrant,occlusion,low,mask,partial viewing,many small,Stimulus\all_stim\occlusion\partialviewing\manysmall\low\manysmall_partialViewing_low_person2.png,mask_img/000000061867.png,experiment,q,r,1066.7822809999998
V3,15,23,Male,Right,23,Block 1,1.1089102999976603,0.025,false,tree,cat,occlusion,high,mask,partial viewing,many small,Stimulus\all_stim\occlusion\partialviewing\manysmall\high\manysmall_partialViewing_high_tree4.png,mask_img/000000053143.png,experiment,i,u,1068.5503129999997
V3,15,23,Male,Right,24,Block 1,3.576350299998012,0.1,true,bus,bus,occlusion,high,mask,partial viewing,few large,Stimulus\all_stim\occlusion\partialviewing\fewlarge\high\fewlarge_partialViewing_high_bus3.png,mask_img/000000015908.png,experiment,o,o,1073.046287199999
V3,15,23,Male,Right,25,Block 1,1.7909394000016619,0.025,true,bus,bus,occlusion,high,mask,partial viewing,many small,Stimulus\all_stim\occlusion\partialviewing\manysmall\high\manysmall_partialViewing_high_bus5.png,mask_img/000000047395.png,experiment,o,o,1075.630015499999
V3,15,23,Male,Right,26,Block 1,1.635815299996466,0.05,true,cat,cat,occlusion,high,mask,partial viewing,few large,Stimulus\all_stim\occlusion\partialviewing\fewlarge\high\fewlarge_partialViewing_high_cat2.png,mask_img/000000017352.png,experiment,i,i,1078.1902808000013
V3,15,23,Male,Right,27,Block 1,1.047703799995361,0.05,false,cat,bus,occlusion,high,mask,partial viewing,many small,Stimulus\all_stim\occlusion\partialviewing\manysmall\high\manysmall_partialViewing_high_cat9.png,mask_img/000000049933.png,experiment,o,i,1079.9100829000017
V3,15,23,Male,Right,28,Block 1,1.5793359000017517,0.1,true,banana,banana,occlusion,low,mask,partial viewing,few large,Stimulus\all_stim\occlusion\partialviewing\fewlarge\low\fewlarge_partialViewing_low_banana5.png,mask_img/000000023100.png,experiment,e,e,1082.5820406999992
V3,15,23,Male,Right,29,Block 1,2.2817642000009073,0.1,true,bus,bus,occlusion,low,mask,partial viewing,many small,Stimulus\all_stim\occlusion\partialviewing\manysmall\low\manysmall_partialViewing_low_bus1.png,mask_img/000000058232.png,experiment,o,o,1085.8623189999998
V3,15,23,Male,Right,30,Block 1,1.8049117999980808,0.1,true,bus,bus,occlusion,control,mask,partial viewing,few large,Stimulus\all_stim\occlusion\partialviewing\fewlarge\control\fewlarge_partialViewing_control_bus8.png,mask_img/000000006153.png,experiment,o,o,1088.3584883000003
V3,15,23,Male,Right,31,Block 1,1.8729842000029748,0.025,false,firehydrant,tree,occlusion,high,mask,partial viewing,few large,Stimulus\all_stim\occlusion\partialviewing\fewlarge\high\fewlarge_partialViewing_high_firehydrant1.png,mask_img/000000017944.png,experiment,u,q,1091.1262811999986
V3,15,23,Male,Right,32,Block 1,2.7421819000010146,0.05,true,cat,cat,occlusion,high,mask,partial viewing,many small,Stimulus\all_stim\occlusion\partialviewing\manysmall\high\manysmall_partialViewing_high_cat1.png,mask_img/000000048664.png,experiment,i,i,1094.9501683999988
V3,15,23,Male,Right,33,Block 1,1.7824929999987944,0.05,true,tree,tree,occlusion,low,mask,partial viewing,few large,Stimulus\all_stim\occlusion\partialviewing\fewlarge\low\fewlarge_partialViewing_low_tree3.png,mask_img/000000031717.png,experiment,u,u,1097.4380346000034
V3,15,23,Male,Right,34,Block 1,1.1682632999945781,0.1,false,firehydrant,tree,occlusion,high,mask,partial viewing,many small,Stimulus\all_stim\occlusion\partialviewing\manysmall\high\manysmall_partialViewing_high_firehydrant4.png,mask_img/000000050412.png,experiment,u,q,1099.4539078000016
V3,15,23,Male,Right,35,Block 1,0.7830045999944559,0.1,false,banana,tree,occlusion,high,mask,partial viewing,many small,Stimulus\all_stim\occlusion\partialviewing\manysmall\high\manysmall_partialViewing_high_banana3.png,mask_img/000000042476.png,experiment,u,e,1101.0700417999979
V3,15,23,Male,Right,36,Block 1,2.0159582999986014,0.1,true,person,person,occlusion,control,mask,partial viewing,few large,Stimulus\all_stim\occlusion\partialviewing\fewlarge\control\fewlarge_partialViewing_control_person10.png,mask_img/000000008469.png,experiment,r,r,1103.8162087000019
V3,15,23,Male,Right,37,Block 1,1.8597174000024097,0.1,true,tree,tree,occlusion,high,mask,partial viewing,few large,Stimulus\all_stim\occlusion\partialviewing\fewlarge\high\fewlarge_partialViewing_high_tree7.png,mask_img/000000022256.png,experiment,u,u,1106.646631399999
V3,15,23,Male,Right,38,Block 1,1.4729796000028728,0.1,false,cat,tree,occlusion,high,mask,partial viewing,many small,Stimulus\all_stim\occlusion\partialviewing\manysmall\high\manysmall_partialViewing_high_cat3.png,mask_img/000000049254.png,experiment,u,i,1109.1341902999993
V3,15,23,Male,Right,39,Block 1,1.3204309000066132,0.05,true,banana,banana,occlusion,control,mask,partial viewing,many small,Stimulus\all_stim\occlusion\partialviewing\manysmall\control\manysmall_partialViewing_control_banana1.png,mask_img/000000033073.png,experiment,e,e,1111.229915099997
V3,15,23,Male,Right,40,Block 1,1.8475852999981726,0.1,true,bus,bus,occlusion,low,mask,partial viewing,many small,Stimulus\all_stim\occlusion\partialviewing\manysmall\low\manysmall_partialViewing_low_bus7.png,mask_img/000000058822.png,experiment,o,o,1114.230132800003
V3,15,23,Male,Right,41,Block 1,1.1980416999940644,0.025,false,bird,bus,occlusion,high,mask,partial viewing,many small,Stimulus\all_stim\occlusion\partialviewing\manysmall\high\manysmall_partialViewing_high_bird10.png,mask_img/000000044065.png,experiment,o,p,1116.2300749999995
V3,15,23,Male,Right,42,Block 1,1.9020612000022084,0.05,true,cat,cat,occlusion,control,mask,partial viewing,many small,Stimulus\all_stim\occlusion\partialviewing\manysmall\control\manysmall_partialViewing_control_cat5.png,mask_img/000000038601.png,experiment,i,i,1118.909981900004
V3,15,23,Male,Right,43,Block 1,1.570036600001913,0.025,false,building,firehydrant,occlusion,control,mask,partial viewing,many small,Stimulus\all_stim\occlusion\partialviewing\manysmall\control\manysmall_partialViewing_control_building5.png,mask_img/000000036004.png,experiment,q,w,1121.1821112000034
V3,15,23,Male,Right,44,Block 1,2.6606457000016235,0.05,true,tree,tree,occlusion,low,mask,partial viewing,many small,Stimulus\all_stim\occlusion\partialviewing\manysmall\low\manysmall_partialViewing_low_tree4.png,mask_img/000000063337.png,experiment,u,u,1124.670289900001
V3,15,23,Male,Right,45,Block 1,0.9662452999982634,0.1,false,person,bus,occlusion,low,mask,partial viewing,many small,Stimulus\all_stim\occlusion\partialviewing\manysmall\low\manysmall_partialViewing_low_person6.png,mask_img/000000062337.png,experiment,o,r,1126.4140522000016
V3,15,23,Male,Right,46,Block 1,1.8563227000049665,0.05,true,bus,bus,occlusion,low,mask,partial viewing,many small,Stimulus\all_stim\occlusion\partialviewing\manysmall\low\manysmall_partialViewing_low_bus8.png,mask_img/000000058873.png,experiment,o,o,1129.286268900003
V3,15,23,Male,Right,47,Block 1,1.4260357999955886,0.05,false,person,tree,occlusion,high,mask,partial viewing,many small,Stimulus\all_stim\occlusion\partialviewing\manysmall\high\manysmall_partialViewing_high_person7.png,mask_img/000000052562.png,experiment,u,r,1131.3920505999995
V3,15,23,Male,Right,48,Block 1,1.9405122000025585,0.1,true,building,building,occlusion,control,mask,partial viewing,many small,Stimulus\all_stim\occlusion\partialviewing\manysmall\control\manysmall_partialViewing_control_building7.png,mask_img/000000036029.png,experiment,w,w,1134.3181799000013
V3,15,23,Male,Right,49,Block 1,1.2365629999985686,0.025,false,bird,cat,occlusion,low,mask,partial viewing,many small,Stimulus\all_stim\occlusion\partialviewing\manysmall\low\manysmall_partialViewing_low_bird5.png,mask_img/000000055942.png,experiment,i,p,1136.2620986000038
V3,15,23,Male,Right,50,Block 1,2.0701033000004827,0.05,true,cat,cat,occlusion,control,mask,partial viewing,few large,Stimulus\all_stim\occlusion\partialviewing\fewlarge\control\fewlarge_partialViewing_control_cat6.png,mask_img/000000007179.png,experiment,i,i,1139.0141220000005
V3,15,23,Male,Right,51,Block 1,2.5472014999977546,0.025,false,bus,tree,occlusion,high,mask,partial viewing,many small,Stimulus\all_stim\occlusion\partialviewing\manysmall\high\manysmall_partialViewing_high_bus9.png,mask_img/000000048268.png,experiment,u,o,1142.4861091999992
V3,15,23,Male,Right,52,Block 1,1.9100474000006216,0.1,true,cat,cat,occlusion,control,mask,partial viewing,many small,Stimulus\all_stim\occlusion\partialviewing\manysmall\control\manysmall_partialViewing_control_cat2.png,mask_img/000000038375.png,experiment,i,i,1145.3022006000028
V3,15,23,Male,Right,53,Block 1,1.2053627999994205,0.025,false,bird,bus,occlusion,low,mask,partial viewing,few large,Stimulus\all_stim\occlusion\partialviewing\fewlarge\low\fewlarge_partialViewing_low_bird5.png,mask_img/000000024239.png,experiment,o,p,1147.294546600002
V3,15,23,Male,Right,54,Block 1,4.73887979999563,0.025,false,bird,building,occlusion,low,mask,partial viewing,few large,Stimulus\all_stim\occlusion\partialviewing\fewlarge\low\fewlarge_partialViewing_low_bird4.png,mask_img/000000024193.png,experiment,w,p,1152.838577100003
V3,15,23,Male,Right,55,Block 1,1.8498258000036003,0.1,false,person,bird,occlusion,high,mask,partial viewing,many small,Stimulus\all_stim\occlusion\partialviewing\manysmall\high\manysmall_partialViewing_high_person9.png,mask_img/000000052619.png,experiment,p,r,1155.574240599999
V3,15,23,Male,Right,56,Block 1,1.7726225000005797,0.1,true,bus,bus,occlusion,low,mask,partial viewing,many small,Stimulus\all_stim\occlusion\partialviewing\manysmall\low\manysmall_partialViewing_low_bus8.png,mask_img/000000058873.png,experiment,o,o,1158.1981786000033
V3,15,23,Male,Right,57,Block 1,1.1725136999957613,0.1,true,firehydrant,firehydrant,occlusion,control,mask,partial viewing,many small,Stimulus\all_stim\occlusion\partialviewing\manysmall\control\manysmall_partialViewing_control_firehydrant2.png,mask_img/000000039089.png,experiment,q,q,1160.0941919000034
V3,15,23,Male,Right,58,Block 1,1.8790130999987014,0.05,true,person,person,occlusion,control,mask,partial viewing,few large,Stimulus\all_stim\occlusion\partialviewing\fewlarge\control\fewlarge_partialViewing_control_person4.png,mask_img/000000009178.png,experiment,r,r,1162.742118299997
V3,15,23,Male,Right,59,Block 1,1.5051282999993418,0.025,true,building,building,occlusion,low,mask,partial viewing,few large,Stimulus\all_stim\occlusion\partialviewing\fewlarge\low\fewlarge_partialViewing_low_building6.png,mask_img/000000025143.png,experiment,w,w,1165.150297500004
V3,15,23,Male,Right,60,Block 1,1.4725762999951257,0.05,false,banana,cat,occlusion,high,mask,partial viewing,few large,Stimulus\all_stim\occlusion\partialviewing\fewlarge\high\fewlarge_partialViewing_high_banana2.png,mask_img/000000012179.png,experiment,i,e,1167.694061000002
V3,15,23,Male,Right,61,Block 1,1.1168887000021641,0.025,false,tree,cat,occlusion,control,mask,partial viewing,many small,Stimulus\all_stim\occlusion\partialviewing\manysmall\control\manysmall_partialViewing_control_tree7.png,mask_img/000000041434.png,experiment,i,u,1169.6463554000002
V3,15,23,Male,Right,62,Block 1,1.202935900000739,0.025,false,person,cat,occlusion,control,mask,partial viewing,many small,Stimulus\all_stim\occlusion\partialviewing\manysmall\control\manysmall_partialViewing_control_person7.png,mask_img/000000040399.png,experiment,i,r,1171.8939895000003
V3,15,23,Male,Right,63,Block 1,1.0770169999959762,0.05,true,banana,banana,occlusion,control,mask,partial viewing,many small,Stimulus\all_stim\occlusion\partialviewing\manysmall\control\manysmall_partialViewing_control_banana2.png,mask_img/000000033126.png,experiment,e,e,1173.846007
V3,15,23,Male,Right,64,Block 1,3.4094068000049447,0.1,true,building,building,occlusion,low,mask,partial viewing,few large,Stimulus\all_stim\occlusion\partialviewing\fewlarge\low\fewlarge_partialViewing_low_building7.png,mask_img/000000025192.png,experiment,w,w,1178.0621162000025
V3,15,23,Male,Right,65,Block 1,1.8502394999959506,0.1,false,banana,tree,occlusion,high,mask,partial viewing,few large,Stimulus\all_stim\occlusion\partialviewing\fewlarge\high\fewlarge_partialViewing_high_banana2.png,mask_img/000000012179.png,experiment,u,e,1180.5902757000003
V3,15,23,Male,Right,66,Block 1,1.9673546999983955,0.1,true,bus,bus,occlusion,control,mask,partial viewing,many small,Stimulus\all_stim\occlusion\partialviewing\manysmall\control\manysmall_partialViewing_control_bus8.png,mask_img/000000037782.png,experiment,o,o,1183.6461390999975
V3,15,23,Male,Right,67,Block 1,1.3201105999978608,0.05,false,building,tree,occlusion,low,mask,partial viewing,many small,Stimulus\all_stim\occlusion\partialviewing\manysmall\low\manysmall_partialViewing_low_building8.png,mask_img/000000058073.png,experiment,u,w,1185.6700956999994
V3,15,23,Male,Right,68,Block 1,1.3608609000002616,0.05,true,firehydrant,firehydrant,occlusion,control,mask,partial viewing,few large,Stimulus\all_stim\occlusion\partialviewing\fewlarge\control\fewlarge_partialViewing_control_firehydrant6.png,mask_img/000000008025.png,experiment,q,q,1187.9661978000004
V3,15,23,Male,Right,69,Block 1,1.357818700002099,0.025,false,tree,building,occlusion,control,mask,partial viewing,many small,Stimulus\all_stim\occlusion\partialviewing\manysmall\control\manysmall_partialViewing_control_tree10.png,mask_img/000000040948.png,experiment,w,u,1190.0106595000034
V3,15,23,Male,Right,70,Block 1,1.307054299999436,0.1,true,building,building,occlusion,control,mask,partial viewing,few large,Stimulus\all_stim\occlusion\partialviewing\fewlarge\control\fewlarge_partialViewing_control_building6.png,mask_img/000000004739.png,experiment,w,w,1192.4541293000002
V3,15,23,Male,Right,71,Block 1,1.192380200001935,0.1,true,tree,tree,occlusion,high,mask,partial viewing,few large,Stimulus\all_stim\occlusion\partialviewing\fewlarge\high\fewlarge_partialViewing_high_tree2.png,mask_img/000000021641.png,experiment,u,u,1194.3340696000014
V3,15,23,Male,Right,72,Block 1,1.3692316000015126,0.1,true,tree,tree,occlusion,high,mask,partial viewing,few large,Stimulus\all_stim\occlusion\partialviewing\fewlarge\high\fewlarge_partialViewing_high_tree9.png,mask_img/000000022440.png,experiment,u,u,1196.5499052000014
V3,15,23,Male,Right,73,Block 1,1.6443600999991759,0.025,false,tree,bus,occlusion,low,mask,partial viewing,few large,Stimulus\all_stim\occlusion\partialviewing\fewlarge\low\fewlarge_partialViewing_low_tree10.png,mask_img/000000031454.png,experiment,o,u,1199.1499133999969
V3,15,23,Male,Right,74,Block 1,1.7688144000057946,0.025,false,person,tree,occlusion,high,mask,partial viewing,many small,Stimulus\all_stim\occlusion\partialviewing\manysmall\high\manysmall_partialViewing_high_person1.png,mask_img/000000051310.png,experiment,u,r,1201.7919803999976
V3,15,23,Male,Right,75,Block 1,1.4798651000019163,0.05,false,bird,cat,occlusion,low,mask,partial viewing,many small,Stimulus\all_stim\occlusion\partialviewing\manysmall\low\manysmall_partialViewing_low_bird3.png,mask_img/000000055849.png,experiment,i,p,1204.014237299998
V3,15,23,Male,Right,76,Block 1,1.5997888000056264,0.1,false,cat,tree,occlusion,control,mask,partial viewing,few large,Stimulus\all_stim\occlusion\partialviewing\fewlarge\control\fewlarge_partialViewing_control_cat8.png,mask_img/000000007393.png,experiment,u,i,1206.5900707999972
V3,15,23,Male,Right,77,Block 1,3.5415801999988616,0.1,true,firehydrant,firehydrant,occlusion,high,mask,partial viewing,few large,Stimulus\all_stim\occlusion\partialviewing\fewlarge\high\fewlarge_partialViewing_high_firehydrant2.png,mask_img/000000018743.png,experiment,q,q,1211.0787007000035
V3,15,23,Male,Right,78,Block 1,1.3162108000033186,0.1,true,tree,tree,occlusion,low,mask,partial viewing,few large,Stimulus\all_stim\occlusion\partialviewing\fewlarge\low\fewlarge_partialViewing_low_tree6.png,mask_img/000000032720.png,experiment,u,u,1213.3421960999985
V3,15,23,Male,Right,79,Block 1,0.9778854000032879,0.025,false,bird,tree,occlusion,low,mask,partial viewing,many small,Stimulus\all_stim\occlusion\partialviewing\manysmall\low\manysmall_partialViewing_low_bird7.png,mask_img/000000056036.png,experiment,u,p,1215.2381561000002
V3,15,23,Male,Right,80,Block 1,1.4524850999951013,0.05,true,building,building,occlusion,high,mask,partial viewing,few large,Stimulus\all_stim\occlusion\partialviewing\fewlarge\high\fewlarge_partialViewing_high_building10.png,mask_img/000000014428.png,experiment,w,w,1217.8060880999983
V3,15,23,Male,Right,81,Block 1,1.2284107999948901,0.1,false,cat,tree,occlusion,high,mask,partial viewing,few large,Stimulus\all_stim\occlusion\partialviewing\fewlarge\high\fewlarge_partialViewing_high_cat8.png,mask_img/000000017791.png,experiment,u,i,1219.8138938999982
V3,15,23,Male,Right,82,Block 1,0.8928019999948447,0.05,false,firehydrant,tree,occlusion,low,mask,partial viewing,many small,Stimulus\all_stim\occlusion\partialviewing\manysmall\low\manysmall_partialViewing_low_firehydrant5.png,mask_img/000000060623.png,experiment,u,q,1221.7418982000017
V3,15,23,Male,Right,83,Block 1,3.2016330000042217,0.05,true,person,person,occlusion,control,mask,partial viewing,many small,Stimulus\all_stim\occlusion\partialviewing\manysmall\control\manysmall_partialViewing_control_person8.png,mask_img/000000040466.png,experiment,r,r,1225.8060569000008
V3,15,23,Male,Right,84,Block 1,1.8115455999941332,0.05,false,bird,tree,occlusion,low,mask,partial viewing,many small,Stimulus\all_stim\occlusion\partialviewing\manysmall\low\manysmall_partialViewing_low_bird7.png,mask_img/000000056036.png,experiment,u,p,1228.3184040999986
V3,15,23,Male,Right,85,Block 1,1.0931440999993356,0.025,false,bus,tree,occlusion,high,mask,partial viewing,few large,Stimulus\all_stim\occlusion\partialviewing\fewlarge\high\fewlarge_partialViewing_high_bus1.png,mask_img/000000015645.png,experiment,u,o,1230.2224062000023
V3,15,23,Male,Right,86,Block 1,1.897920299998077,0.1,true,cat,cat,occlusion,control,mask,partial viewing,few large,Stimulus\all_stim\occlusion\partialviewing\fewlarge\control\fewlarge_partialViewing_control_cat1.png,mask_img/000000006437.png,experiment,i,i,1233.2222814999986
V3,15,23,Male,Right,87,Block 1,3.4521174999972573,0.025,false,bird,building,occlusion,control,mask,partial viewing,few large,Stimulus\all_stim\occlusion\partialviewing\fewlarge\control\fewlarge_partialViewing_control_bird3.png,mask_img/000000001810.png,experiment,w,p,1237.526189199998
V3,15,23,Male,Right,88,Block 1,1.1259583000064595,0.1,true,person,person,occlusion,control,mask,partial viewing,many small,Stimulus\all_stim\occlusion\partialviewing\manysmall\control\manysmall_partialViewing_control_person10.png,mask_img/000000039778.png,experiment,r,r,1239.638005300003
V3,15,23,Male,Right,89,Block 1,1.1313351999997394,0.05,false,bird,tree,occlusion,high,mask,partial viewing,few large,Stimulus\all_stim\occlusion\partialviewing\fewlarge\high\fewlarge_partialViewing_high_bird9.png,mask_img/000000014175.png,experiment,u,p,1241.815949099997
V3,15,23,Male,Right,90,Block 1,1.1842608000006294,0.1,false,firehydrant,tree,occlusion,high,mask,partial viewing,many small,Stimulus\all_stim\occlusion\partialviewing\manysmall\high\manysmall_partialViewing_high_firehydrant9.png,mask_img/000000051164.png,experiment,u,q,1243.982261199999
V3,15,23,Male,Right,91,Block 1,2.182682400001795,0.1,true,firehydrant,firehydrant,occlusion,low,mask,partial viewing,few large,Stimulus\all_stim\occlusion\partialviewing\fewlarge\low\fewlarge_partialViewing_low_firehydrant10.png,mask_img/000000028367.png,experiment,q,q,1246.9902275999993
V3,15,23,Male,Right,92,Block 1,2.454936900001485,0.05,true,bus,bus,occlusion,low,mask,partial viewing,few large,Stimulus\all_stim\occlusion\partialviewing\fewlarge\low\fewlarge_partialViewing_low_bus10.png,mask_img/000000025855.png,experiment,o,o,1250.2142410000015
V3,15,23,Male,Right,93,Block 1,1.199364499996591,0.05,false,firehydrant,cat,occlusion,control,mask,partial viewing,many small,Stimulus\all_stim\occlusion\partialviewing\manysmall\control\manysmall_partialViewing_control_firehydrant6.png,mask_img/000000039406.png,experiment,i,q,1252.1582673000012
V3,15,23,Male,Right,94,Block 1,1.9885794000001624,0.05,false,person,tree,occlusion,high,mask,partial viewing,many small,Stimulus\all_stim\occlusion\partialviewing\manysmall\high\manysmall_partialViewing_high_person6.png,mask_img/000000052426.png,experiment,u,r,1255.2860537000015
V3,15,23,Male,Right,95,Block 1,1.1448243000049843,0.1,false,person,cat,occlusion,low,mask,partial viewing,many small,Stimulus\all_stim\occlusion\partialviewing\manysmall\low\manysmall_partialViewing_low_person8.png,mask_img/000000062420.png,experiment,i,r,1257.3020352000021
V3,15,23,Male,Right,96,Block 1,1.7848553000003449,0.025,true,bus,bus,occlusion,control,mask,partial viewing,many small,Stimulus\all_stim\occlusion\partialviewing\manysmall\control\manysmall_partialViewing_control_bus7.png,mask_img/000000037339.png,experiment,o,o,1259.974118500002
V3,15,23,Male,Right,97,Block 1,2.480608400001074,0.05,true,person,person,occlusion,control,mask,partial viewing,many small,Stimulus\all_stim\occlusion\partialviewing\manysmall\control\manysmall_partialViewing_control_person10.png,mask_img/000000039778.png,experiment,r,r,1263.3261704000033
V3,15,23,Male,Right,98,Block 1,1.7884978000001865,0.05,false,banana,bus,occlusion,high,mask,partial viewing,few large,Stimulus\all_stim\occlusion\partialviewing\fewlarge\high\fewlarge_partialViewing_high_banana6.png,mask_img/000000012548.png,experiment,o,e,1266.1341356999983
V3,15,23,Male,Right,99,Block 1,1.355587199999718,0.1,true,tree,tree,occlusion,low,mask,partial viewing,many small,Stimulus\all_stim\occlusion\partialviewing\manysmall\low\manysmall_partialViewing_low_tree5.png,mask_img/000000063482.png,experiment,u,u,1268.2783447000038
V3,15,23,Male,Right,100,Block 1,1.7336548999955994,0.05,true,building,building,occlusion,control,mask,partial viewing,few large,Stimulus\all_stim\occlusion\partialviewing\fewlarge\control\fewlarge_partialViewing_control_building10.png,mask_img/000000003225.png,experiment,w,w,1270.8621239999993
V3,15,23,Male,Right,101,Block 1,1.4708227000010083,0.1,false,banana,bus,occlusion,low,mask,partial viewing,few large,Stimulus\all_stim\occlusion\partialviewing\fewlarge\low\fewlarge_partialViewing_low_banana8.png,mask_img/000000023656.png,experiment,o,e,1272.9982931999984
V3,15,23,Male,Right,102,Block 1,1.6781638999964343,0.1,true,banana,banana,occlusion,control,mask,partial viewing,many small,Stimulus\all_stim\occlusion\partialviewing\manysmall\control\manysmall_partialViewing_control_banana7.png,mask_img/000000033861.png,experiment,e,e,1275.6540787999984
V3,15,23,Male,Right,103,Block 1,1.7976167000015266,0.05,true,bus,bus,occlusion,control,mask,partial viewing,many small,Stimulus\all_stim\occlusion\partialviewing\manysmall\control\manysmall_partialViewing_control_bus4.png,mask_img/000000036966.png,experiment,o,o,1278.3181575999988
V3,15,23,Male,Right,104,Block 1,4.753666200005682,0.025,false,firehydrant,bus,occlusion,low,mask,partial viewing,few large,Stimulus\all_stim\occlusion\partialviewing\fewlarge\low\fewlarge_partialViewing_low_firehydrant7.png,mask_img/000000028885.png,experiment,o,q,1284.070453500004
V3,15,23,Male,Right,105,Block 1,1.0374738999962574,0.1,true,tree,tree,occlusion,low,mask,partial viewing,many small,Stimulus\all_stim\occlusion\partialviewing\manysmall\low\manysmall_partialViewing_low_tree8.png,mask_img/000000063804.png,experiment,u,u,1286.0459783999977
V3,15,23,Male,Right,106,Block 1,1.4274800999992294,0.1,false,person,bird,occlusion,high,mask,partial viewing,few large,Stimulus\all_stim\occlusion\partialviewing\fewlarge\high\fewlarge_partialViewing_high_person10.png,mask_img/000000019927.png,experiment,p,r,1288.5580553000036
V3,15,23,Male,Right,107,Block 1,2.151307200001611,0.1,true,tree,tree,occlusion,low,mask,partial viewing,few large,Stimulus\all_stim\occlusion\partialviewing\fewlarge\low\fewlarge_partialViewing_low_tree2.png,mask_img/000000031601.png,experiment,u,u,1291.8139527000021
V3,15,23,Male,Right,108,Block 1,1.0211772000038764,0.025,true,tree,tree,occlusion,low,mask,partial viewing,many small,Stimulus\all_stim\occlusion\partialviewing\manysmall\low\manysmall_partialViewing_low_tree3.png,mask_img/000000063147.png,experiment,u,u,1293.9019829000026
V3,15,23,Male,Right,109,Block 1,1.3704203000015696,0.1,true,banana,banana,occlusion,control,mask,partial viewing,few large,Stimulus\all_stim\occlusion\partialviewing\fewlarge\control\fewlarge_partialViewing_control_banana7.png,mask_img/000000000626.png,experiment,e,e,1296.1261836999984
V3,15,23,Male,Right,110,Block 1,2.0342608999999356,0.1,false,building,tree,occlusion,control,mask,partial viewing,many small,Stimulus\all_stim\occlusion\partialviewing\manysmall\control\manysmall_partialViewing_control_building9.png,mask_img/000000036226.png,experiment,u,w,1299.181753900004
V3,15,23,Male,Right,111,Block 1,1.4322404999984428,0.1,true,tree,tree,occlusion,control,mask,partial viewing,many small,Stimulus\all_stim\occlusion\partialviewing\manysmall\control\manysmall_partialViewing_control_tree5.png,mask_img/000000041174.png,experiment,u,u,1301.3181766999987
V3,15,23,Male,Right,112,Block 1,3.6132022999954643,0.025,false,firehydrant,cat,occlusion,high,mask,partial viewing,few large,Stimulus\all_stim\occlusion\partialviewing\fewlarge\high\fewlarge_partialViewing_high_firehydrant4.png,mask_img/000000018882.png,experiment,i,q,1305.797862600004
V3,15,23,Male,Right,113,Block 1,1.2314306999978726,0.1,true,firehydrant,firehydrant,occlusion,control,mask,partial viewing,few large,Stimulus\all_stim\occlusion\partialviewing\fewlarge\control\fewlarge_partialViewing_control_firehydrant8.png,mask_img/000000008193.png,experiment,q,q,1307.8462491000028
V3,15,23,Male,Right,114,Block 1,1.8866017000036663,0.1,false,person,tree,occlusion,low,mask,partial viewing,few large,Stimulus\all_stim\occlusion\partialviewing\fewlarge\low\fewlarge_partialViewing_low_person7.png,mask_img/000000030526.png,experiment,u,r,1310.6800077000007
V3,15,23,Male,Right,115,Block 1,1.1627038000005996,0.05,true,bird,bird,occlusion,high,mask,partial viewing,few large,Stimulus\all_stim\occlusion\partialviewing\fewlarge\high\fewlarge_partialViewing_high_bird4.png,mask_img/000000013721.png,experiment,p,p,1312.782047599998
V3,15,23,Male,Right,116,Block 1,1.7193719999995665,0.1,false,cat,tree,occlusion,high,mask,partial viewing,many small,Stimulus\all_stim\occlusion\partialviewing\manysmall\high\manysmall_partialViewing_high_cat9.png,mask_img/000000049933.png,experiment,u,i,1315.1820593000011
V3,15,23,Male,Right,117,Block 1,1.2314841999977943,0.05,false,firehydrant,bus,occlusion,low,mask,partial viewing,many small,Stimulus\all_stim\occlusion\partialviewing\manysmall\low\manysmall_partialViewing_low_firehydrant10.png,mask_img/000000060529.png,experiment,o,q,1317.367071200002
V3,15,23,Male,Right,118,Block 1,1.3565522000062629,0.1,true,banana,banana,occlusion,high,mask,partial viewing,few large,Stimulus\all_stim\occlusion\partialviewing\fewlarge\high\fewlarge_partialViewing_high_banana9.png,mask_img/000000012999.png,experiment,e,e,1319.5420939000032
V3,15,23,Male,Right,119,Block 1,1.2600448000011966,0.05,false,cat,tree,occlusion,low,mask,partial viewing,many small,Stimulus\all_stim\occlusion\partialviewing\manysmall\low\manysmall_partialViewing_low_cat10.png,mask_img/000000059046.png,experiment,u,i,1321.5658965999974
V3,15,23,Male,Right,120,Block 1,1.7037945999982185,0.1,true,bus,bus,occlusion,low,mask,partial viewing,many small,Stimulus\all_stim\occlusion\partialviewing\manysmall\low\manysmall_partialViewing_low_bus6.png,mask_img/000000058815.png,experiment,o,o,1323.9900590000034
V3,15,23,Male,Right,121,Block 1,1.1677467999979854,0.05,true,building,building,occlusion,control,mask,partial viewing,many small,Stimulus\all_stim\occlusion\partialviewing\manysmall\control\manysmall_partialViewing_control_building8.png,mask_img/000000036091.png,experiment,w,w,1325.8858445000005
V3,15,23,Male,Right,122,Block 1,1.3628906000012648,0.1,true,person,person,occlusion,control,mask,partial viewing,many small,Stimulus\all_stim\occlusion\partialviewing\manysmall\control\manysmall_partialViewing_control_person4.png,mask_img/000000040042.png,experiment,r,r,1328.0543305000028
V3,15,23,Male,Right,123,Block 1,2.087599799997406,0.025,true,banana,banana,occlusion,control,mask,partial viewing,many small,Stimulus\all_stim\occlusion\partialviewing\manysmall\control\manysmall_partialViewing_control_banana5.png,mask_img/000000033669.png,experiment,e,e,1330.974112099997
V3,15,23,Male,Right,124,Block 1,1.7615434999970603,0.025,true,firehydrant,firehydrant,occlusion,high,mask,partial viewing,many small,Stimulus\all_stim\occlusion\partialviewing\manysmall\high\manysmall_partialViewing_high_firehydrant9.png,mask_img/000000051164.png,experiment,q,q,1333.7900948000024
V3,15,23,Male,Right,125,Block 1,1.7967664999960107,0.1,true,building,building,occlusion,control,mask,partial viewing,many small,Stimulus\all_stim\occlusion\partialviewing\manysmall\control\manysmall_partialViewing_control_building1.png,mask_img/000000035818.png,experiment,w,w,1336.7181903000019
V3,15,23,Male,Right,126,Block 1,1.4732805000021472,0.05,false,banana,building,occlusion,high,mask,partial viewing,many small,Stimulus\all_stim\occlusion\partialviewing\manysmall\high\manysmall_partialViewing_high_banana9.png,mask_img/000000043579.png,experiment,w,e,1338.8781050000034
V3,15,23,Male,Right,127,Block 1,1.5894899999984773,0.025,false,cat,tree,occlusion,high,mask,partial viewing,few large,Stimulus\all_stim\occlusion\partialviewing\fewlarge\high\fewlarge_partialViewing_high_cat3.png,mask_img/000000017356.png,experiment,u,i,1341.4781557000024
V3,15,23,Male,Right,128,Block 1,1.3001579999981914,0.05,true,banana,banana,occlusion,low,mask,partial viewing,few large,Stimulus\all_stim\occlusion\partialviewing\fewlarge\low\fewlarge_partialViewing_low_banana4.png,mask_img/000000023015.png,experiment,e,e,1343.782145600002
V3,15,23,Male,Right,129,Block 1,1.0528719000067213,0.025,false,building,cat,occlusion,low,mask,partial viewing,many small,Stimulus\all_stim\occlusion\partialviewing\manysmall\low\manysmall_partialViewing_low_building4.png,mask_img/000000057782.png,experiment,i,w,1345.613953400003
V3,15,23,Male,Right,130,Block 1,1.1175516999937827,0.1,false,person,bus,occlusion,low,mask,partial viewing,many small,Stimulus\all_stim\occlusion\partialviewing\manysmall\low\manysmall_partialViewing_low_person3.png,mask_img/000000062128.png,experiment,o,r,1347.4058178999985
V3,15,23,Male,Right,131,Block 1,2.3052253000059864,0.05,true,tree,tree,occlusion,control,mask,partial viewing,few large,Stimulus\all_stim\occlusion\partialviewing\fewlarge\control\fewlarge_partialViewing_control_tree9.png,mask_img/000000011701.png,experiment,u,u,1350.366274400003
