Version,pt_num,Age,Gender,Handedness,trial_nbr,block_number,rt,soa,acc,category,choiced_category,manipulation,difficulty,mask,type_occl,size_occl,filename,mask_filename,task,pressed_key,correct_key,Experiment Duration
V3,20,23,Male,Right,1,Training,3.917027400020743,0.05,true,tree,tree,occlusion,control,mask,partial viewing,many small,Training_Stimulus\manysmall_partialViewing_control_tree9.png,mask_img/000000005282.png,training,r,r,134.02180580000277
V3,20,23,Male,Right,2,Training,2.007701199996518,0.05,false,firehydrant,building,occlusion,high,mask,partial viewing,few large,Training_Stimulus\fewlarge_partialViewing_high_firehydrant90.png,mask_img/000000001810.png,training,o,q,137.22580070002005
V3,20,23,Male,Right,3,Training,1.4046475000213832,0.1,true,tree,tree,occlusion,control,mask,partial viewing,few large,Training_Stimulus\fewlarge_partialViewing_control_tree9.png,mask_img/000000000626.png,training,r,r,140.08424339999328
V3,20,23,Male,Right,4,Training,1.2026426999946125,0.1,false,bird,tree,occlusion,high,mask,partial viewing,few large,Training_Stimulus\fewlarge_partialViewing_high_bird4.png,mask_img/000000000731.png,training,r,p,142.8810400000075
V3,20,23,Male,Right,5,Training,1.6528086999896914,0.05,true,banana,banana,occlusion,low,mask,partial viewing,few large,Training_Stimulus\fewlarge_partialViewing_low_banana454.png,mask_img/000000002337.png,training,u,u,145.7731741000025
V3,20,23,Male,Right,6,Training,1.3823217000172008,0.05,true,person,person,occlusion,high,mask,partial viewing,many small,Training_Stimulus\manysmall_partialViewing_high_person189.png,mask_img/000000006153.png,training,w,w,148.59809330001008
V3,20,23,Male,Right,7,Training,1.7915423999947961,0.1,true,bus,bus,occlusion,low,mask,partial viewing,many small,Training_Stimulus\manysmall_partialViewing_low_bus180.png,mask_img/000000006709.png,training,i,i,151.54036860002088
V3,20,23,Male,Right,8,Training,1.5004619999963325,0.05,true,cat,cat,occlusion,control,mask,partial viewing,many small,Training_Stimulus\manysmall_partialViewing_control_cat432.png,mask_img/000000005105.png,training,e,e,154.26261100001284
V3,20,23,Male,Right,9,Training,1.6701018000021577,0.025,true,building,building,occlusion,high,mask,partial viewing,many small,Training_Stimulus\manysmall_partialViewing_high_building24.png,mask_img/000000005574.png,training,o,o,157.5275077999977
V3,20,23,Male,Right,10,Training,1.331182900001295,0.1,true,banana,banana,occlusion,control,mask,partial viewing,many small,Training_Stimulus\manysmall_partialViewing_control_banana454.png,mask_img/000000004239.png,training,u,u,160.24632490001386
V3,20,23,Male,Right,11,Training,1.3294022000045516,0.025,true,bus,bus,occlusion,control,mask,partial viewing,few large,Training_Stimulus\fewlarge_partialViewing_control_bus180.png,mask_img/000000000394.png,training,i,i,162.91801330001908
V3,20,23,Male,Right,12,Training,1.2299246000184212,0.025,true,tree,tree,occlusion,control,mask,partial viewing,few large,Training_Stimulus\fewlarge_partialViewing_control_tree9.png,mask_img/000000000626.png,training,r,r,165.248376500007
V3,20,23,Male,Right,1,Block 1,1.2392222000053152,0.1,true,banana,banana,occlusion,control,mask,partial viewing,many small,Stimulus\all_stim\occlusion\partialviewing\manysmall\control\manysmall_partialViewing_control_banana10.png,mask_img/000000033074.png,experiment,u,u,186.8645757000195
V3,20,23,Male,Right,2,Block 1,1.4223472000157926,0.1,true,building,building,occlusion,low,mask,partial viewing,many small,Stimulus\all_stim\occlusion\partialviewing\manysmall\low\manysmall_partialViewing_low_building7.png,mask_img/000000058021.png,experiment,o,o,189.0964309000119
V3,20,23,Male,Right,3,Block 1,1.0696576000191271,0.025,true,bird,bird,occlusion,control,mask,partial viewing,few large,Stimulus\all_stim\occlusion\partialviewing\fewlarge\control\fewlarge_partialViewing_control_bird3.png,mask_img/000000001810.png,experiment,p,p,191.12871099999757
V3,20,23,Male,Right,4,Block 1,1.3056884000252467,0.1,true,cat,cat,occlusion,high,mask,partial viewing,many small,Stimulus\all_stim\occlusion\partialviewing\manysmall\high\manysmall_partialViewing_high_cat7.png,mask_img/000000049602.png,experiment,e,e,193.24031449999893
V3,20,23,Male,Right,5,Block 1,1.2902395999990404,0.1,true,bus,bus,occlusion,high,mask,partial viewing,few large,Stimulus\all_stim\occlusion\partialviewing\fewlarge\high\fewlarge_partialViewing_high_bus3.png,mask_img/000000015908.png,experiment,i,i,195.56829230001313
V3,20,23,Male,Right,6,Block 1,1.2351238999981433,0.05,true,banana,banana,occlusion,low,mask,partial viewing,many small,Stimulus\all_stim\occlusion\partialviewing\manysmall\low\manysmall_partialViewing_low_banana7.png,mask_img/000000055594.png,experiment,u,u,197.60837719999836
V3,20,23,Male,Right,7,Block 1,1.4870081999979448,0.1,true,cat,cat,occlusion,control,mask,partial viewing,few large,Stimulus\all_stim\occlusion\partialviewing\fewlarge\control\fewlarge_partialViewing_control_cat6.png,mask_img/000000007179.png,experiment,e,e,200.20844950000173
V3,20,23,Male,Right,8,Block 1,1.3605219000019133,0.05,true,building,building,occlusion,control,mask,partial viewing,few large,Stimulus\all_stim\occlusion\partialviewing\fewlarge\control\fewlarge_partialViewing_control_building8.png,mask_img/000000005105.png,experiment,o,o,202.55244040000252
V3,20,23,Male,Right,9,Block 1,1.4804213999886997,0.025,true,banana,banana,occlusion,low,mask,partial viewing,few large,Stimulus\all_stim\occlusion\partialviewing\fewlarge\low\fewlarge_partialViewing_low_banana7.png,mask_img/000000023511.png,experiment,u,u,204.8888975000009
V3,20,23,Male,Right,10,Block 1,1.3174511000106577,0.05,true,cat,cat,occlusion,low,mask,partial viewing,few large,Stimulus\all_stim\occlusion\partialviewing\fewlarge\low\fewlarge_partialViewing_low_cat9.png,mask_img/000000028231.png,experiment,e,e,207.27226070000324
V3,20,23,Male,Right,11,Block 1,2.129348399990704,0.05,true,bird,bird,occlusion,low,mask,partial viewing,many small,Stimulus\all_stim\occlusion\partialviewing\manysmall\low\manysmall_partialViewing_low_bird6.png,mask_img/000000056007.png,experiment,p,p,210.12831580001512
V3,20,23,Male,Right,12,Block 1,1.5249416999868117,0.05,true,firehydrant,firehydrant,occlusion,high,mask,partial viewing,many small,Stimulus\all_stim\occlusion\partialviewing\manysmall\high\manysmall_partialViewing_high_firehydrant5.png,mask_img/000000050496.png,experiment,q,q,212.65641570001026
V3,20,23,Male,Right,13,Block 1,0.9455048000090756,0.1,true,firehydrant,firehydrant,occlusion,control,mask,partial viewing,few large,Stimulus\all_stim\occlusion\partialviewing\fewlarge\control\fewlarge_partialViewing_control_firehydrant4.png,mask_img/000000007952.png,experiment,q,q,214.7202765000111
V3,20,23,Male,Right,14,Block 1,1.2714705999824218,0.1,true,bus,bus,occlusion,low,mask,partial viewing,many small,Stimulus\all_stim\occlusion\partialviewing\manysmall\low\manysmall_partialViewing_low_bus1.png,mask_img/000000058232.png,experiment,i,i,216.79220220001298
V3,20,23,Male,Right,15,Block 1,1.2277164999977686,0.05,true,building,building,occlusion,low,mask,partial viewing,few large,Stimulus\all_stim\occlusion\partialviewing\fewlarge\low\fewlarge_partialViewing_low_building3.png,mask_img/000000024808.png,experiment,o,o,218.70444289999432
V3,20,23,Male,Right,16,Block 1,0.8701984000217635,0.1,true,bird,bird,occlusion,low,mask,partial viewing,few large,Stimulus\all_stim\occlusion\partialviewing\fewlarge\low\fewlarge_partialViewing_low_bird6.png,mask_img/000000024247.png,experiment,p,p,220.4962684000202
V3,20,23,Male,Right,17,Block 1,1.3029374000034295,0.05,true,firehydrant,firehydrant,occlusion,high,mask,partial viewing,few large,Stimulus\all_stim\occlusion\partialviewing\fewlarge\high\fewlarge_partialViewing_high_firehydrant10.png,mask_img/000000018441.png,experiment,q,q,222.50432569999248
V3,20,23,Male,Right,18,Block 1,0.8939789999858476,0.1,true,person,person,occlusion,control,mask,partial viewing,many small,Stimulus\all_stim\occlusion\partialviewing\manysmall\control\manysmall_partialViewing_control_person10.png,mask_img/000000039778.png,experiment,w,w,224.11328300001333
V3,20,23,Male,Right,19,Block 1,1.3203401999780908,0.025,true,building,building,occlusion,high,mask,partial viewing,many small,Stimulus\all_stim\occlusion\partialviewing\manysmall\high\manysmall_partialViewing_high_building2.png,mask_img/000000045306.png,experiment,o,o,226.4485515000124
V3,20,23,Male,Right,20,Block 1,0.9107577000104357,0.05,true,building,building,occlusion,high,mask,partial viewing,many small,Stimulus\all_stim\occlusion\partialviewing\manysmall\high\manysmall_partialViewing_high_building7.png,mask_img/000000046171.png,experiment,o,o,228.04828730001464
V3,20,23,Male,Right,21,Block 1,1.0607730000047013,0.025,true,person,person,occlusion,control,mask,partial viewing,few large,Stimulus\all_stim\occlusion\partialviewing\fewlarge\control\fewlarge_partialViewing_control_person9.png,mask_img/000000009809.png,experiment,w,w,230.01648290001322
V3,20,23,Male,Right,22,Block 1,0.8111970000027213,0.1,true,person,person,occlusion,control,mask,partial viewing,many small,Stimulus\all_stim\occlusion\partialviewing\manysmall\control\manysmall_partialViewing_control_person3.png,mask_img/000000040008.png,experiment,w,w,231.86429550001048
V3,20,23,Male,Right,23,Block 1,1.2604724999982864,0.025,true,tree,tree,occlusion,high,mask,partial viewing,few large,Stimulus\all_stim\occlusion\partialviewing\fewlarge\high\fewlarge_partialViewing_high_tree4.png,mask_img/000000021981.png,experiment,r,r,234.2802769000118
V3,20,23,Male,Right,24,Block 1,1.2563371000287589,0.025,false,person,bus,occlusion,high,mask,partial viewing,many small,Stimulus\all_stim\occlusion\partialviewing\manysmall\high\manysmall_partialViewing_high_person7.png,mask_img/000000052562.png,experiment,i,w,236.7045824000088
V3,20,23,Male,Right,25,Block 1,1.1263031999988016,0.05,true,person,person,occlusion,high,mask,partial viewing,few large,Stimulus\all_stim\occlusion\partialviewing\fewlarge\high\fewlarge_partialViewing_high_person5.png,mask_img/000000020381.png,experiment,w,w,238.7047154000029
V3,20,23,Male,Right,26,Block 1,1.4761065000202507,0.025,true,bus,bus,occlusion,low,mask,partial viewing,many small,Stimulus\all_stim\occlusion\partialviewing\manysmall\low\manysmall_partialViewing_low_bus2.png,mask_img/000000058627.png,experiment,i,i,241.16869869999937
V3,20,23,Male,Right,27,Block 1,0.9732477999932598,0.05,true,person,person,occlusion,control,mask,partial viewing,few large,Stimulus\all_stim\occlusion\partialviewing\fewlarge\control\fewlarge_partialViewing_control_person2.png,mask_img/000000008787.png,experiment,w,w,243.0802815000061
V3,20,23,Male,Right,28,Block 1,1.0604899000027217,0.025,true,banana,banana,occlusion,high,mask,partial viewing,few large,Stimulus\all_stim\occlusion\partialviewing\fewlarge\high\fewlarge_partialViewing_high_banana6.png,mask_img/000000012548.png,experiment,u,u,245.11246540001594
V3,20,23,Male,Right,29,Block 1,0.9544888000236824,0.1,true,banana,banana,occlusion,control,mask,partial viewing,many small,Stimulus\all_stim\occlusion\partialviewing\manysmall\control\manysmall_partialViewing_control_banana1.png,mask_img/000000033073.png,experiment,u,u,247.0323558000091
V3,20,23,Male,Right,30,Block 1,0.8718889000010677,0.1,true,tree,tree,occlusion,control,mask,partial viewing,few large,Stimulus\all_stim\occlusion\partialviewing\fewlarge\control\fewlarge_partialViewing_control_tree10.png,mask_img/000000010414.png,experiment,r,r,249.0644368000212
V3,20,23,Male,Right,31,Block 1,0.9492362999881152,0.1,true,banana,banana,occlusion,high,mask,partial viewing,few large,Stimulus\all_stim\occlusion\partialviewing\fewlarge\high\fewlarge_partialViewing_high_banana8.png,mask_img/000000012733.png,experiment,u,u,250.96864180002012
V3,20,23,Male,Right,32,Block 1,0.861844300001394,0.05,true,person,person,occlusion,low,mask,partial viewing,few large,Stimulus\all_stim\occlusion\partialviewing\fewlarge\low\fewlarge_partialViewing_low_person8.png,mask_img/000000030611.png,experiment,w,w,252.52864120001323
V3,20,23,Male,Right,33,Block 1,1.1931787000212353,0.1,true,firehydrant,firehydrant,occlusion,high,mask,partial viewing,few large,Stimulus\all_stim\occlusion\partialviewing\fewlarge\high\fewlarge_partialViewing_high_firehydrant1.png,mask_img/000000017944.png,experiment,q,q,254.7126341999974
V3,20,23,Male,Right,34,Block 1,0.7706028000102378,0.1,true,person,person,occlusion,control,mask,partial viewing,many small,Stimulus\all_stim\occlusion\partialviewing\manysmall\control\manysmall_partialViewing_control_person5.png,mask_img/000000040275.png,experiment,w,w,256.55237439999473
V3,20,23,Male,Right,35,Block 1,1.1878993000136688,0.025,true,bus,bus,occlusion,high,mask,partial viewing,few large,Stimulus\all_stim\occlusion\partialviewing\fewlarge\high\fewlarge_partialViewing_high_bus6.png,mask_img/000000015987.png,experiment,i,i,258.8806511000148
V3,20,23,Male,Right,36,Block 1,1.0689281999948435,0.1,true,firehydrant,firehydrant,occlusion,high,mask,partial viewing,many small,Stimulus\all_stim\occlusion\partialviewing\manysmall\high\manysmall_partialViewing_high_firehydrant2.png,mask_img/000000050239.png,experiment,q,q,260.7446309000079
V3,20,23,Male,Right,37,Block 1,1.0803103999933228,0.1,true,bus,bus,occlusion,control,mask,partial viewing,many small,Stimulus\all_stim\occlusion\partialviewing\manysmall\control\manysmall_partialViewing_control_bus7.png,mask_img/000000037339.png,experiment,i,i,262.7766636000015
V3,20,23,Male,Right,38,Block 1,1.0253305000078399,0.1,true,bus,bus,occlusion,high,mask,partial viewing,many small,Stimulus\all_stim\occlusion\partialviewing\manysmall\high\manysmall_partialViewing_high_bus4.png,mask_img/000000047316.png,experiment,i,i,264.7846320999961
V3,20,23,Male,Right,39,Block 1,0.8499387000047136,0.05,true,firehydrant,firehydrant,occlusion,control,mask,partial viewing,many small,Stimulus\all_stim\occlusion\partialviewing\manysmall\control\manysmall_partialViewing_control_firehydrant10.png,mask_img/000000039053.png,experiment,q,q,266.79247390001547
V3,20,23,Male,Right,40,Block 1,1.2600005000131205,0.1,false,cat,person,occlusion,low,mask,partial viewing,many small,Stimulus\all_stim\occlusion\partialviewing\manysmall\low\manysmall_partialViewing_low_cat8.png,mask_img/000000060245.png,experiment,w,e,269.33642140001757
V3,20,23,Male,Right,41,Block 1,1.4552432999771554,0.1,true,building,building,occlusion,high,mask,partial viewing,many small,Stimulus\all_stim\occlusion\partialviewing\manysmall\high\manysmall_partialViewing_high_building2.png,mask_img/000000045306.png,experiment,o,o,271.9044533999986
V3,20,23,Male,Right,42,Block 1,0.922452600003453,0.1,true,banana,banana,occlusion,low,mask,partial viewing,few large,Stimulus\all_stim\occlusion\partialviewing\fewlarge\low\fewlarge_partialViewing_low_banana6.png,mask_img/000000023137.png,experiment,u,u,273.6004062000138
V3,20,23,Male,Right,43,Block 1,1.2020556000061333,0.05,true,firehydrant,firehydrant,occlusion,high,mask,partial viewing,few large,Stimulus\all_stim\occlusion\partialviewing\fewlarge\high\fewlarge_partialViewing_high_firehydrant5.png,mask_img/000000018982.png,experiment,q,q,275.6565760000085
V3,20,23,Male,Right,44,Block 1,0.8119606999971438,0.1,true,firehydrant,firehydrant,occlusion,control,mask,partial viewing,few large,Stimulus\all_stim\occlusion\partialviewing\fewlarge\control\fewlarge_partialViewing_control_firehydrant2.png,mask_img/000000007934.png,experiment,q,q,277.20030160000897
V3,20,23,Male,Right,45,Block 1,0.6608077000128105,0.1,true,firehydrant,firehydrant,occlusion,low,mask,partial viewing,many small,Stimulus\all_stim\occlusion\partialviewing\manysmall\low\manysmall_partialViewing_low_firehydrant9.png,mask_img/000000061693.png,experiment,q,q,278.9426766000106
V3,20,23,Male,Right,46,Block 1,0.8216399000084493,0.05,true,bird,bird,occlusion,control,mask,partial viewing,many small,Stimulus\all_stim\occlusion\partialviewing\manysmall\control\manysmall_partialViewing_control_bird9.png,mask_img/000000035514.png,experiment,p,p,280.65650519999326
V3,20,23,Male,Right,47,Block 1,1.2116603000031319,0.025,false,tree,cat,occlusion,high,mask,partial viewing,many small,Stimulus\all_stim\occlusion\partialviewing\manysmall\high\manysmall_partialViewing_high_tree2.png,mask_img/000000052901.png,experiment,e,r,282.88069310001447
V3,20,23,Male,Right,48,Block 1,1.4576946999877691,0.1,true,tree,tree,occlusion,low,mask,partial viewing,few large,Stimulus\all_stim\occlusion\partialviewing\fewlarge\low\fewlarge_partialViewing_low_tree8.png,mask_img/000000032918.png,experiment,r,r,285.24112350001815
V3,20,23,Male,Right,49,Block 1,1.0962146999954712,0.05,true,bus,bus,occlusion,low,mask,partial viewing,few large,Stimulus\all_stim\occlusion\partialviewing\fewlarge\low\fewlarge_partialViewing_low_bus4.png,mask_img/000000026053.png,experiment,i,i,287.24044670001604
V3,20,23,Male,Right,50,Block 1,0.885444199986523,0.1,true,banana,banana,occlusion,control,mask,partial viewing,many small,Stimulus\all_stim\occlusion\partialviewing\manysmall\control\manysmall_partialViewing_control_banana7.png,mask_img/000000033861.png,experiment,u,u,289.2564631999994
V3,20,23,Male,Right,51,Block 1,1.1667527000245173,0.05,true,person,person,occlusion,control,mask,partial viewing,many small,Stimulus\all_stim\occlusion\partialviewing\manysmall\control\manysmall_partialViewing_control_person8.png,mask_img/000000040466.png,experiment,w,w,291.50471410001046
V3,20,23,Male,Right,52,Block 1,1.211860399984289,0.1,true,banana,banana,occlusion,low,mask,partial viewing,few large,Stimulus\all_stim\occlusion\partialviewing\fewlarge\low\fewlarge_partialViewing_low_banana9.png,mask_img/000000023967.png,experiment,u,u,293.54504280001856
V3,20,23,Male,Right,53,Block 1,0.8012678000086453,0.05,true,person,person,occlusion,control,mask,partial viewing,many small,Stimulus\all_stim\occlusion\partialviewing\manysmall\control\manysmall_partialViewing_control_person10.png,mask_img/000000039778.png,experiment,w,w,295.3925828000065
V3,20,23,Male,Right,54,Block 1,1.023511299979873,0.1,true,banana,banana,occlusion,low,mask,partial viewing,many small,Stimulus\all_stim\occlusion\partialviewing\manysmall\low\manysmall_partialViewing_low_banana6.png,mask_img/000000055460.png,experiment,u,u,297.5765977000119
V3,20,23,Male,Right,55,Block 1,0.9145567000086885,0.05,true,tree,tree,occlusion,high,mask,partial viewing,few large,Stimulus\all_stim\occlusion\partialviewing\fewlarge\high\fewlarge_partialViewing_high_tree5.png,mask_img/000000022102.png,experiment,r,r,299.5686388000031
V3,20,23,Male,Right,56,Block 1,0.8107230000023264,0.05,true,banana,banana,occlusion,low,mask,partial viewing,many small,Stimulus\all_stim\occlusion\partialviewing\manysmall\low\manysmall_partialViewing_low_banana4.png,mask_img/000000055202.png,experiment,u,u,301.1445967000036
V3,20,23,Male,Right,57,Block 1,1.1130922999873292,0.05,false,bird,person,occlusion,low,mask,partial viewing,many small,Stimulus\all_stim\occlusion\partialviewing\manysmall\low\manysmall_partialViewing_low_bird9.png,mask_img/000000056641.png,experiment,w,p,303.4245838000206
V3,20,23,Male,Right,58,Block 1,1.1427775000047404,0.05,false,building,bus,occlusion,low,mask,partial viewing,many small,Stimulus\all_stim\occlusion\partialviewing\manysmall\low\manysmall_partialViewing_low_building1.png,mask_img/000000056716.png,experiment,i,o,305.2963990000135
V3,20,23,Male,Right,59,Block 1,2.746289100003196,0.05,false,cat,banana,occlusion,control,mask,partial viewing,few large,Stimulus\all_stim\occlusion\partialviewing\fewlarge\control\fewlarge_partialViewing_control_cat4.png,mask_img/000000006842.png,experiment,u,e,308.8327147999953
V3,20,23,Male,Right,60,Block 1,1.1317433999793138,0.05,true,tree,tree,occlusion,control,mask,partial viewing,many small,Stimulus\all_stim\occlusion\partialviewing\manysmall\control\manysmall_partialViewing_control_tree8.png,mask_img/000000041577.png,experiment,r,r,310.6966270999983
V3,20,23,Male,Right,61,Block 1,0.9132433000195306,0.05,true,bird,bird,occlusion,low,mask,partial viewing,few large,Stimulus\all_stim\occlusion\partialviewing\fewlarge\low\fewlarge_partialViewing_low_bird2.png,mask_img/000000024125.png,experiment,p,p,312.6327437
V3,20,23,Male,Right,62,Block 1,0.8881898999970872,0.05,false,cat,bird,occlusion,high,mask,partial viewing,few large,Stimulus\all_stim\occlusion\partialviewing\fewlarge\high\fewlarge_partialViewing_high_cat10.png,mask_img/000000017308.png,experiment,p,e,314.6888738000125
V3,20,23,Male,Right,63,Block 1,0.9142543000052683,0.1,true,bird,bird,occlusion,high,mask,partial viewing,many small,Stimulus\all_stim\occlusion\partialviewing\manysmall\high\manysmall_partialViewing_high_bird5.png,mask_img/000000044437.png,experiment,p,p,316.68079780001426
V3,20,23,Male,Right,64,Block 1,1.1153362000186462,0.05,true,bus,bus,occlusion,control,mask,partial viewing,many small,Stimulus\all_stim\occlusion\partialviewing\manysmall\control\manysmall_partialViewing_control_bus5.png,mask_img/000000037140.png,experiment,i,i,318.8661329000024
V3,20,23,Male,Right,65,Block 1,1.4361094000050798,0.05,true,firehydrant,firehydrant,occlusion,low,mask,partial viewing,few large,Stimulus\all_stim\occlusion\partialviewing\fewlarge\low\fewlarge_partialViewing_low_firehydrant10.png,mask_img/000000028367.png,experiment,q,q,321.26466730001266
V3,20,23,Male,Right,66,Block 1,2.1075468999915756,0.025,false,cat,tree,occlusion,high,mask,partial viewing,many small,Stimulus\all_stim\occlusion\partialviewing\manysmall\high\manysmall_partialViewing_high_cat6.png,mask_img/000000049562.png,experiment,r,e,324.06466960001853
V3,20,23,Male,Right,67,Block 1,1.245930800010683,0.1,true,building,building,occlusion,low,mask,partial viewing,many small,Stimulus\all_stim\occlusion\partialviewing\manysmall\low\manysmall_partialViewing_low_building5.png,mask_img/000000057930.png,experiment,o,o,326.27244260002044
V3,20,23,Male,Right,68,Block 1,0.7860780000046361,0.025,true,building,building,occlusion,control,mask,partial viewing,few large,Stimulus\all_stim\occlusion\partialviewing\fewlarge\control\fewlarge_partialViewing_control_building8.png,mask_img/000000005105.png,experiment,o,o,328.01657700000214
V3,20,23,Male,Right,69,Block 1,0.7456993999949191,0.1,true,bird,bird,occlusion,high,mask,partial viewing,few large,Stimulus\all_stim\occlusion\partialviewing\fewlarge\high\fewlarge_partialViewing_high_bird10.png,mask_img/000000013127.png,experiment,p,p,329.5686282000097
V3,20,23,Male,Right,70,Block 1,1.3067875999840908,0.025,true,bus,bus,occlusion,low,mask,partial viewing,many small,Stimulus\all_stim\occlusion\partialviewing\manysmall\low\manysmall_partialViewing_low_bus9.png,mask_img/000000058910.png,experiment,i,i,331.91288459999487
V3,20,23,Male,Right,71,Block 1,1.0824833000078797,0.05,false,cat,tree,occlusion,low,mask,partial viewing,few large,Stimulus\all_stim\occlusion\partialviewing\fewlarge\low\fewlarge_partialViewing_low_cat3.png,mask_img/000000027556.png,experiment,r,e,333.79261259999475
V3,20,23,Male,Right,72,Block 1,0.808500000013737,0.05,true,cat,cat,occlusion,high,mask,partial viewing,few large,Stimulus\all_stim\occlusion\partialviewing\fewlarge\high\fewlarge_partialViewing_high_cat1.png,mask_img/000000017183.png,experiment,e,e,335.6327201999957
V3,20,23,Male,Right,73,Block 1,1.0458456999913324,0.1,true,person,person,occlusion,low,mask,partial viewing,few large,Stimulus\all_stim\occlusion\partialviewing\fewlarge\low\fewlarge_partialViewing_low_person1.png,mask_img/000000029090.png,experiment,w,w,337.8567481999926
V3,20,23,Male,Right,74,Block 1,1.051323699997738,0.1,true,tree,tree,occlusion,low,mask,partial viewing,few large,Stimulus\all_stim\occlusion\partialviewing\fewlarge\low\fewlarge_partialViewing_low_tree4.png,mask_img/000000032364.png,experiment,r,r,340.08093389999704
V3,20,23,Male,Right,75,Block 1,1.2252261000103317,0.05,false,bird,cat,occlusion,high,mask,partial viewing,few large,Stimulus\all_stim\occlusion\partialviewing\fewlarge\high\fewlarge_partialViewing_high_bird7.png,mask_img/000000013949.png,experiment,e,p,342.168742400012
V3,20,23,Male,Right,76,Block 1,0.9425630000187084,0.05,true,banana,banana,occlusion,low,mask,partial viewing,few large,Stimulus\all_stim\occlusion\partialviewing\fewlarge\low\fewlarge_partialViewing_low_banana3.png,mask_img/000000023004.png,experiment,u,u,343.92115480001667
V3,20,23,Male,Right,77,Block 1,1.3856582999869715,0.05,false,bus,building,occlusion,high,mask,partial viewing,many small,Stimulus\all_stim\occlusion\partialviewing\manysmall\high\manysmall_partialViewing_high_bus9.png,mask_img/000000048268.png,experiment,o,i,346.17661369999405
V3,20,23,Male,Right,78,Block 1,0.8840288000064902,0.05,true,bus,bus,occlusion,high,mask,partial viewing,few large,Stimulus\all_stim\occlusion\partialviewing\fewlarge\high\fewlarge_partialViewing_high_bus4.png,mask_img/000000015927.png,experiment,i,i,347.90481239999644
V3,20,23,Male,Right,79,Block 1,0.865120400005253,0.1,true,banana,banana,occlusion,low,mask,partial viewing,few large,Stimulus\all_stim\occlusion\partialviewing\fewlarge\low\fewlarge_partialViewing_low_banana7.png,mask_img/000000023511.png,experiment,u,u,349.82498450001003
V3,20,23,Male,Right,80,Block 1,1.7076618999999482,0.025,false,cat,bird,occlusion,high,mask,partial viewing,many small,Stimulus\all_stim\occlusion\partialviewing\manysmall\high\manysmall_partialViewing_high_cat3.png,mask_img/000000049254.png,experiment,p,e,352.64139070000965
V3,20,23,Male,Right,81,Block 1,0.7835886999964714,0.1,true,bird,bird,occlusion,low,mask,partial viewing,many small,Stimulus\all_stim\occlusion\partialviewing\manysmall\low\manysmall_partialViewing_low_bird9.png,mask_img/000000056641.png,experiment,p,p,354.3846642000135
V3,20,23,Male,Right,82,Block 1,1.1291704000032041,0.05,true,building,building,occlusion,low,mask,partial viewing,many small,Stimulus\all_stim\occlusion\partialviewing\manysmall\low\manysmall_partialViewing_low_building9.png,mask_img/000000058102.png,experiment,o,o,356.2090989999997
V3,20,23,Male,Right,83,Block 1,0.8330951999814715,0.05,true,banana,banana,occlusion,control,mask,partial viewing,few large,Stimulus\all_stim\occlusion\partialviewing\fewlarge\control\fewlarge_partialViewing_control_banana8.png,mask_img/000000000690.png,experiment,u,u,357.9931079999951
V3,20,23,Male,Right,84,Block 1,1.2117394999950193,0.1,true,building,building,occlusion,control,mask,partial viewing,many small,Stimulus\all_stim\occlusion\partialviewing\manysmall\control\manysmall_partialViewing_control_building9.png,mask_img/000000036226.png,experiment,o,o,360.28100720001385
V3,20,23,Male,Right,85,Block 1,1.4012969000032172,0.05,true,tree,tree,occlusion,high,mask,partial viewing,many small,Stimulus\all_stim\occlusion\partialviewing\manysmall\high\manysmall_partialViewing_high_tree2.png,mask_img/000000052901.png,experiment,r,r,362.4647467000177
V3,20,23,Male,Right,86,Block 1,0.6415703999809921,0.025,true,tree,tree,occlusion,control,mask,partial viewing,many small,Stimulus\all_stim\occlusion\partialviewing\manysmall\control\manysmall_partialViewing_control_tree6.png,mask_img/000000041272.png,experiment,r,r,364.12873480000417
V3,20,23,Male,Right,87,Block 1,1.1254515000036918,0.025,true,building,building,occlusion,high,mask,partial viewing,many small,Stimulus\all_stim\occlusion\partialviewing\manysmall\high\manysmall_partialViewing_high_building4.png,mask_img/000000046025.png,experiment,o,o,366.2807494000008
V3,20,23,Male,Right,88,Block 1,1.0637090999807697,0.05,false,bus,banana,occlusion,control,mask,partial viewing,many small,Stimulus\all_stim\occlusion\partialviewing\manysmall\control\manysmall_partialViewing_control_bus6.png,mask_img/000000037174.png,experiment,u,i,368.26529450001544
V3,20,23,Male,Right,89,Block 1,1.627682200021809,0.05,true,firehydrant,firehydrant,occlusion,control,mask,partial viewing,many small,Stimulus\all_stim\occlusion\partialviewing\manysmall\control\manysmall_partialViewing_control_firehydrant4.png,mask_img/000000039141.png,experiment,q,q,371.03308240001206
V3,20,23,Male,Right,90,Block 1,0.8808556000003591,0.05,true,person,person,occlusion,low,mask,partial viewing,many small,Stimulus\all_stim\occlusion\partialviewing\manysmall\low\manysmall_partialViewing_low_person2.png,mask_img/000000061867.png,experiment,w,w,372.76894380000886
V3,20,23,Male,Right,91,Block 1,1.243441900005564,0.05,true,bus,bus,occlusion,control,mask,partial viewing,few large,Stimulus\all_stim\occlusion\partialviewing\fewlarge\control\fewlarge_partialViewing_control_bus7.png,mask_img/000000006146.png,experiment,i,i,374.9771064000088
V3,20,23,Male,Right,92,Block 1,0.8700432000041474,0.025,true,banana,banana,occlusion,low,mask,partial viewing,many small,Stimulus\all_stim\occlusion\partialviewing\manysmall\low\manysmall_partialViewing_low_banana10.png,mask_img/000000054723.png,experiment,u,u,377.02490770001896
V3,20,23,Male,Right,93,Block 1,0.9467767000023741,0.1,false,cat,bird,occlusion,high,mask,partial viewing,few large,Stimulus\all_stim\occlusion\partialviewing\fewlarge\high\fewlarge_partialViewing_high_cat8.png,mask_img/000000017791.png,experiment,p,e,379.04879359999904
V3,20,23,Male,Right,94,Block 1,2.0930700000026263,0.1,true,bird,bird,occlusion,control,mask,partial viewing,many small,Stimulus\all_stim\occlusion\partialviewing\manysmall\control\manysmall_partialViewing_control_bird6.png,mask_img/000000034993.png,experiment,p,p,382.0093021999928
V3,20,23,Male,Right,95,Block 1,0.7075994999904651,0.05,false,tree,bird,occlusion,high,mask,partial viewing,few large,Stimulus\all_stim\occlusion\partialviewing\fewlarge\high\fewlarge_partialViewing_high_tree10.png,mask_img/000000021419.png,experiment,p,r,383.79377139999997
V3,20,23,Male,Right,96,Block 1,1.0634751000034157,0.025,true,person,person,occlusion,control,mask,partial viewing,few large,Stimulus\all_stim\occlusion\partialviewing\fewlarge\control\fewlarge_partialViewing_control_person8.png,mask_img/000000009729.png,experiment,w,w,385.57710570000927
V3,20,23,Male,Right,97,Block 1,1.3710895999975037,0.1,false,bird,person,occlusion,high,mask,partial viewing,few large,Stimulus\all_stim\occlusion\partialviewing\fewlarge\high\fewlarge_partialViewing_high_bird1.png,mask_img/000000013061.png,experiment,w,p,388.10496880000574
V3,20,23,Male,Right,98,Block 1,1.1421792000182904,0.1,true,bird,bird,occlusion,control,mask,partial viewing,many small,Stimulus\all_stim\occlusion\partialviewing\manysmall\control\manysmall_partialViewing_control_bird2.png,mask_img/000000034455.png,experiment,p,p,390.2247045999975
V3,20,23,Male,Right,99,Block 1,1.0300593000138178,0.05,true,bus,bus,occlusion,high,mask,partial viewing,many small,Stimulus\all_stim\occlusion\partialviewing\manysmall\high\manysmall_partialViewing_high_bus2.png,mask_img/000000046852.png,experiment,i,i,392.08081250000396
V3,20,23,Male,Right,100,Block 1,0.779136600001948,0.1,true,banana,banana,occlusion,control,mask,partial viewing,few large,Stimulus\all_stim\occlusion\partialviewing\fewlarge\control\fewlarge_partialViewing_control_banana2.png,mask_img/000000000312.png,experiment,u,u,393.86500400002114
V3,20,23,Male,Right,101,Block 1,1.2882185999769717,0.1,true,bird,bird,occlusion,low,mask,partial viewing,few large,Stimulus\all_stim\occlusion\partialviewing\fewlarge\low\fewlarge_partialViewing_low_bird3.png,mask_img/000000024157.png,experiment,p,p,396.16112870001234
V3,20,23,Male,Right,102,Block 1,1.273779300012393,0.1,true,building,building,occlusion,high,mask,partial viewing,few large,Stimulus\all_stim\occlusion\partialviewing\fewlarge\high\fewlarge_partialViewing_high_building1.png,mask_img/000000014335.png,experiment,o,o,398.4490817000042
V3,20,23,Male,Right,103,Block 1,0.6150523999822326,0.1,true,building,building,occlusion,control,mask,partial viewing,few large,Stimulus\all_stim\occlusion\partialviewing\fewlarge\control\fewlarge_partialViewing_control_building9.png,mask_img/000000005131.png,experiment,o,o,400.0857033000211
V3,20,23,Male,Right,104,Block 1,1.0864617999759503,0.025,true,firehydrant,firehydrant,occlusion,low,mask,partial viewing,few large,Stimulus\all_stim\occlusion\partialviewing\fewlarge\low\fewlarge_partialViewing_low_firehydrant10.png,mask_img/000000028367.png,experiment,q,q,402.0969432000129
V3,20,23,Male,Right,105,Block 1,0.8922711999912281,0.1,true,bird,bird,occlusion,high,mask,partial viewing,few large,Stimulus\all_stim\occlusion\partialviewing\fewlarge\high\fewlarge_partialViewing_high_bird9.png,mask_img/000000014175.png,experiment,p,p,403.73691940002027
V3,20,23,Male,Right,106,Block 1,1.0402040999906603,0.05,true,bus,bus,occlusion,low,mask,partial viewing,many small,Stimulus\all_stim\occlusion\partialviewing\manysmall\low\manysmall_partialViewing_low_bus5.png,mask_img/000000058801.png,experiment,i,i,405.785208300018
V3,20,23,Male,Right,107,Block 1,0.943201299989596,0.1,true,bus,bus,occlusion,control,mask,partial viewing,many small,Stimulus\all_stim\occlusion\partialviewing\manysmall\control\manysmall_partialViewing_control_bus2.png,mask_img/000000036622.png,experiment,i,i,407.46495360002154
V3,20,23,Male,Right,108,Block 1,0.7436289000033867,0.1,true,banana,banana,occlusion,control,mask,partial viewing,many small,Stimulus\all_stim\occlusion\partialviewing\manysmall\control\manysmall_partialViewing_control_banana3.png,mask_img/000000033323.png,experiment,u,u,409.17700210001203
V3,20,23,Male,Right,109,Block 1,0.839141499978723,0.05,true,bus,bus,occlusion,control,mask,partial viewing,many small,Stimulus\all_stim\occlusion\partialviewing\manysmall\control\manysmall_partialViewing_control_bus2.png,mask_img/000000036622.png,experiment,i,i,410.76933989999816
V3,20,23,Male,Right,110,Block 1,1.3788760000024922,0.1,false,tree,cat,occlusion,high,mask,partial viewing,many small,Stimulus\all_stim\occlusion\partialviewing\manysmall\high\manysmall_partialViewing_high_tree4.png,mask_img/000000053143.png,experiment,e,r,413.1851316000102
V3,20,23,Male,Right,111,Block 1,0.9380316000024322,0.05,true,cat,cat,occlusion,low,mask,partial viewing,many small,Stimulus\all_stim\occlusion\partialviewing\manysmall\low\manysmall_partialViewing_low_cat7.png,mask_img/000000060158.png,experiment,e,e,414.82495160002145
V3,20,23,Male,Right,112,Block 1,0.7458718999987468,0.1,true,bird,bird,occlusion,control,mask,partial viewing,few large,Stimulus\all_stim\occlusion\partialviewing\fewlarge\control\fewlarge_partialViewing_control_bird4.png,mask_img/000000001997.png,experiment,p,p,416.3688128000067
V3,20,23,Male,Right,113,Block 1,0.8471400999987964,0.1,true,cat,cat,occlusion,control,mask,partial viewing,few large,Stimulus\all_stim\occlusion\partialviewing\fewlarge\control\fewlarge_partialViewing_control_cat9.png,mask_img/000000007558.png,experiment,e,e,418.1450943000091
V3,20,23,Male,Right,114,Block 1,0.8425450999930035,0.1,true,banana,banana,occlusion,low,mask,partial viewing,many small,Stimulus\all_stim\occlusion\partialviewing\manysmall\low\manysmall_partialViewing_low_banana4.png,mask_img/000000055202.png,experiment,u,u,419.97709970001597
V3,20,23,Male,Right,115,Block 1,1.8435184999834746,0.025,false,tree,cat,occlusion,high,mask,partial viewing,many small,Stimulus\all_stim\occlusion\partialviewing\manysmall\high\manysmall_partialViewing_high_tree6.png,mask_img/000000053539.png,experiment,e,r,422.68920700001763
V3,20,23,Male,Right,116,Block 1,0.856028599984711,0.025,true,tree,tree,occlusion,control,mask,partial viewing,few large,Stimulus\all_stim\occlusion\partialviewing\fewlarge\control\fewlarge_partialViewing_control_tree10.png,mask_img/000000010414.png,experiment,r,r,424.6331881000078
V3,20,23,Male,Right,117,Block 1,1.531021900009364,0.025,false,banana,tree,occlusion,high,mask,partial viewing,many small,Stimulus\all_stim\occlusion\partialviewing\manysmall\high\manysmall_partialViewing_high_banana9.png,mask_img/000000043579.png,experiment,r,u,427.2256472000154
V3,20,23,Male,Right,118,Block 1,0.960310299997218,0.025,true,cat,cat,occlusion,low,mask,partial viewing,few large,Stimulus\all_stim\occlusion\partialviewing\fewlarge\low\fewlarge_partialViewing_low_cat7.png,mask_img/000000027890.png,experiment,e,e,429.2330733000126
V3,20,23,Male,Right,119,Block 1,0.8696885000099428,0.025,true,person,person,occlusion,control,mask,partial viewing,few large,Stimulus\all_stim\occlusion\partialviewing\fewlarge\control\fewlarge_partialViewing_control_person2.png,mask_img/000000008787.png,experiment,w,w,431.2569923000119
V3,20,23,Male,Right,120,Block 1,1.234513400006108,0.025,true,building,building,occlusion,control,mask,partial viewing,many small,Stimulus\all_stim\occlusion\partialviewing\manysmall\control\manysmall_partialViewing_control_building7.png,mask_img/000000036029.png,experiment,o,o,433.4416387999954
V3,20,23,Male,Right,121,Block 1,1.2120106000220403,0.1,true,person,person,occlusion,high,mask,partial viewing,many small,Stimulus\all_stim\occlusion\partialviewing\manysmall\high\manysmall_partialViewing_high_person10.png,mask_img/000000051453.png,experiment,w,w,435.7449087999994
V3,20,23,Male,Right,122,Block 1,0.8523654000018723,0.025,true,banana,banana,occlusion,high,mask,partial viewing,few large,Stimulus\all_stim\occlusion\partialviewing\fewlarge\high\fewlarge_partialViewing_high_banana5.png,mask_img/000000012543.png,experiment,u,u,437.3049525000097
V3,20,23,Male,Right,123,Block 1,1.1016996999969706,0.05,true,building,building,occlusion,high,mask,partial viewing,many small,Stimulus\all_stim\occlusion\partialviewing\manysmall\high\manysmall_partialViewing_high_building10.png,mask_img/000000044989.png,experiment,o,o,439.35298930000863
V3,20,23,Male,Right,124,Block 1,0.9541355999826919,0.1,true,bird,bird,occlusion,control,mask,partial viewing,many small,Stimulus\all_stim\occlusion\partialviewing\manysmall\control\manysmall_partialViewing_control_bird1.png,mask_img/000000034113.png,experiment,p,p,441.0016957000189
V3,20,23,Male,Right,125,Block 1,0.8893199999874923,0.1,true,banana,banana,occlusion,high,mask,partial viewing,few large,Stimulus\all_stim\occlusion\partialviewing\fewlarge\high\fewlarge_partialViewing_high_banana10.png,mask_img/000000012178.png,experiment,u,u,442.6812515000056
V3,20,23,Male,Right,126,Block 1,0.9919868999859318,0.1,true,firehydrant,firehydrant,occlusion,control,mask,partial viewing,few large,Stimulus\all_stim\occlusion\partialviewing\fewlarge\control\fewlarge_partialViewing_control_firehydrant9.png,mask_img/000000008329.png,experiment,q,q,444.5849595000036
V3,20,23,Male,Right,127,Block 1,0.893721500004176,0.025,true,tree,tree,occlusion,high,mask,partial viewing,few large,Stimulus\all_stim\occlusion\partialviewing\fewlarge\high\fewlarge_partialViewing_high_tree1.png,mask_img/000000021206.png,experiment,r,r,446.6174656999938
V3,20,23,Male,Right,128,Block 1,0.8432312000077218,0.05,true,tree,tree,occlusion,control,mask,partial viewing,few large,Stimulus\all_stim\occlusion\partialviewing\fewlarge\control\fewlarge_partialViewing_control_tree2.png,mask_img/000000010560.png,experiment,r,r,448.40916470001685
V3,20,23,Male,Right,129,Block 1,0.8399444999813568,0.025,true,cat,cat,occlusion,control,mask,partial viewing,few large,Stimulus\all_stim\occlusion\partialviewing\fewlarge\control\fewlarge_partialViewing_control_cat9.png,mask_img/000000007558.png,experiment,e,e,450.0570388000051
V3,20,23,Male,Right,130,Block 1,0.7647016000119038,0.025,true,person,person,occlusion,low,mask,partial viewing,many small,Stimulus\all_stim\occlusion\partialviewing\manysmall\low\manysmall_partialViewing_low_person6.png,mask_img/000000062337.png,experiment,w,w,451.7530437000096
V3,20,23,Male,Right,131,Block 1,1.0628586999955587,0.05,true,bus,bus,occlusion,low,mask,partial viewing,many small,Stimulus\all_stim\occlusion\partialviewing\manysmall\low\manysmall_partialViewing_low_bus2.png,mask_img/000000058627.png,experiment,i,i,453.89730959999724
V3,20,23,Male,Right,132,Block 1,1.1475602999853436,0.05,true,cat,cat,occlusion,low,mask,partial viewing,few large,Stimulus\all_stim\occlusion\partialviewing\fewlarge\low\fewlarge_partialViewing_low_cat2.png,mask_img/000000027371.png,experiment,e,e,456.10525220001
V3,20,23,Male,Right,133,Block 1,1.0547212000237778,0.025,true,bus,bus,occlusion,control,mask,partial viewing,few large,Stimulus\all_stim\occlusion\partialviewing\fewlarge\control\fewlarge_partialViewing_control_bus8.png,mask_img/000000006153.png,experiment,i,i,458.3212013000157
V3,20,23,Male,Right,134,Block 1,0.8307173000066541,0.025,true,banana,banana,occlusion,high,mask,partial viewing,few large,Stimulus\all_stim\occlusion\partialviewing\fewlarge\high\fewlarge_partialViewing_high_banana1.png,mask_img/000000011754.png,experiment,u,u,459.92105060000904
V3,20,23,Male,Right,135,Block 1,0.8011819000239484,0.025,true,firehydrant,firehydrant,occlusion,control,mask,partial viewing,few large,Stimulus\all_stim\occlusion\partialviewing\fewlarge\control\fewlarge_partialViewing_control_firehydrant1.png,mask_img/000000007740.png,experiment,q,q,461.6093696000171
V3,20,23,Male,Right,136,Block 1,1.0895013000117615,0.05,false,building,bus,occlusion,high,mask,partial viewing,few large,Stimulus\all_stim\occlusion\partialviewing\fewlarge\high\fewlarge_partialViewing_high_building9.png,mask_img/000000015619.png,experiment,i,o,463.37730870000087
V3,20,23,Male,Right,137,Block 1,1.3770074999774806,0.05,true,cat,cat,occlusion,low,mask,partial viewing,many small,Stimulus\all_stim\occlusion\partialviewing\manysmall\low\manysmall_partialViewing_low_cat6.png,mask_img/000000059918.png,experiment,e,e,465.9136089000094
V3,20,23,Male,Right,138,Block 1,0.9143567999999505,0.05,true,tree,tree,occlusion,low,mask,partial viewing,many small,Stimulus\all_stim\occlusion\partialviewing\manysmall\low\manysmall_partialViewing_low_tree9.png,mask_img/000000063867.png,experiment,r,r,467.8494052000169
V3,20,23,Male,Right,139,Block 1,0.9052801000070758,0.025,true,tree,tree,occlusion,control,mask,partial viewing,few large,Stimulus\all_stim\occlusion\partialviewing\fewlarge\control\fewlarge_partialViewing_control_tree3.png,mask_img/000000010566.png,experiment,r,r,469.5292327000061
V3,20,23,Male,Right,140,Block 1,1.0579833000083454,0.1,true,bus,bus,occlusion,control,mask,partial viewing,few large,Stimulus\all_stim\occlusion\partialviewing\fewlarge\control\fewlarge_partialViewing_control_bus8.png,mask_img/000000006153.png,experiment,i,i,471.3210453999927
V3,20,23,Male,Right,141,Block 1,0.8373891999945045,0.1,true,person,person,occlusion,control,mask,partial viewing,many small,Stimulus\all_stim\occlusion\partialviewing\manysmall\control\manysmall_partialViewing_control_person2.png,mask_img/000000039971.png,experiment,w,w,472.993079900014
V3,20,23,Male,Right,142,Block 1,0.9922031000023708,0.1,true,bird,bird,occlusion,high,mask,partial viewing,many small,Stimulus\all_stim\occlusion\partialviewing\manysmall\high\manysmall_partialViewing_high_bird2.png,mask_img/000000044117.png,experiment,p,p,474.9936097000027
V3,20,23,Male,Right,143,Block 1,0.90284409999731,0.1,true,firehydrant,firehydrant,occlusion,control,mask,partial viewing,few large,Stimulus\all_stim\occlusion\partialviewing\fewlarge\control\fewlarge_partialViewing_control_firehydrant5.png,mask_img/000000008006.png,experiment,q,q,477.02536510000937
V3,20,23,Male,Right,144,Block 1,1.0055324000131804,0.025,true,person,person,occlusion,control,mask,partial viewing,many small,Stimulus\all_stim\occlusion\partialviewing\manysmall\control\manysmall_partialViewing_control_person2.png,mask_img/000000039971.png,experiment,w,w,556.2098348000145
V3,20,23,Male,Right,145,Block 2,0.8383738000120502,0.1,true,banana,banana,occlusion,low,mask,partial viewing,many small,Stimulus\all_stim\occlusion\partialviewing\manysmall\low\manysmall_partialViewing_low_banana7.png,mask_img/000000055594.png,experiment,u,u,558.218552300008
V3,20,23,Male,Right,146,Block 2,0.7389252000139095,0.05,true,bird,bird,occlusion,high,mask,partial viewing,few large,Stimulus\all_stim\occlusion\partialviewing\fewlarge\high\fewlarge_partialViewing_high_bird5.png,mask_img/000000013914.png,experiment,p,p,559.7938130999974
V3,20,23,Male,Right,147,Block 2,1.0364027000032365,0.1,true,banana,banana,occlusion,control,mask,partial viewing,few large,Stimulus\all_stim\occlusion\partialviewing\fewlarge\control\fewlarge_partialViewing_control_banana4.png,mask_img/000000000438.png,experiment,u,u,561.8181232000061
V3,20,23,Male,Right,148,Block 2,0.8407879000005778,0.05,true,banana,banana,occlusion,control,mask,partial viewing,many small,Stimulus\all_stim\occlusion\partialviewing\manysmall\control\manysmall_partialViewing_control_banana7.png,mask_img/000000033861.png,experiment,u,u,563.3615873999952
V3,20,23,Male,Right,149,Block 2,1.0991469000000507,0.1,true,bus,bus,occlusion,low,mask,partial viewing,many small,Stimulus\all_stim\occlusion\partialviewing\manysmall\low\manysmall_partialViewing_low_bus6.png,mask_img/000000058815.png,experiment,i,i,565.1935728999961
V3,20,23,Male,Right,150,Block 2,0.8148822000075597,0.1,true,bus,bus,occlusion,control,mask,partial viewing,many small,Stimulus\all_stim\occlusion\partialviewing\manysmall\control\manysmall_partialViewing_control_bus1.png,mask_img/000000036255.png,experiment,i,i,566.9455050000106
V3,20,23,Male,Right,151,Block 2,0.7944021000002977,0.025,true,person,person,occlusion,low,mask,partial viewing,few large,Stimulus\all_stim\occlusion\partialviewing\fewlarge\low\fewlarge_partialViewing_low_person8.png,mask_img/000000030611.png,experiment,w,w,568.8657894000062
V3,20,23,Male,Right,152,Block 2,1.1254159999953117,0.05,false,bird,tree,occlusion,low,mask,partial viewing,many small,Stimulus\all_stim\occlusion\partialviewing\manysmall\low\manysmall_partialViewing_low_bird4.png,mask_img/000000055859.png,experiment,r,p,571.0974467000051
V3,20,23,Male,Right,153,Block 2,0.9255460999847855,0.05,true,bird,bird,occlusion,low,mask,partial viewing,many small,Stimulus\all_stim\occlusion\partialviewing\manysmall\low\manysmall_partialViewing_low_bird3.png,mask_img/000000055849.png,experiment,p,p,572.8496372000081
V3,20,23,Male,Right,154,Block 2,0.8346682999981567,0.05,true,tree,tree,occlusion,control,mask,partial viewing,few large,Stimulus\all_stim\occlusion\partialviewing\fewlarge\control\fewlarge_partialViewing_control_tree5.png,mask_img/000000010991.png,experiment,r,r,574.625606799993
V3,20,23,Male,Right,155,Block 2,0.8189158000168391,0.025,false,cat,bird,occlusion,high,mask,partial viewing,few large,Stimulus\all_stim\occlusion\partialviewing\fewlarge\high\fewlarge_partialViewing_high_cat5.png,mask_img/000000017409.png,experiment,p,e,576.4653947000043
V3,20,23,Male,Right,156,Block 2,1.1512124000000767,0.025,true,cat,cat,occlusion,high,mask,partial viewing,many small,Stimulus\all_stim\occlusion\partialviewing\manysmall\high\manysmall_partialViewing_high_cat9.png,mask_img/000000049933.png,experiment,e,e,578.7616515000118
V3,20,23,Male,Right,157,Block 2,0.7392563999746926,0.05,true,bird,bird,occlusion,low,mask,partial viewing,many small,Stimulus\all_stim\occlusion\partialviewing\manysmall\low\manysmall_partialViewing_low_bird8.png,mask_img/000000056137.png,experiment,p,p,580.1857067999954
V3,20,23,Male,Right,158,Block 2,0.8110640000086278,0.05,true,firehydrant,firehydrant,occlusion,control,mask,partial viewing,few large,Stimulus\all_stim\occlusion\partialviewing\fewlarge\control\fewlarge_partialViewing_control_firehydrant6.png,mask_img/000000008025.png,experiment,q,q,582.0416479000123
V3,20,23,Male,Right,159,Block 2,0.8714479000191204,0.05,true,bird,bird,occlusion,low,mask,partial viewing,few large,Stimulus\all_stim\occlusion\partialviewing\fewlarge\low\fewlarge_partialViewing_low_bird4.png,mask_img/000000024193.png,experiment,p,p,584.0899105000135
V3,20,23,Male,Right,160,Block 2,0.7439199000073131,0.025,true,person,person,occlusion,low,mask,partial viewing,few large,Stimulus\all_stim\occlusion\partialviewing\fewlarge\low\fewlarge_partialViewing_low_person10.png,mask_img/000000029128.png,experiment,w,w,585.993543300021
V3,20,23,Male,Right,161,Block 2,1.162817400007043,0.025,true,bus,bus,occlusion,high,mask,partial viewing,few large,Stimulus\all_stim\occlusion\partialviewing\fewlarge\high\fewlarge_partialViewing_high_bus3.png,mask_img/000000015908.png,experiment,i,i,587.9297007000132
V3,20,23,Male,Right,162,Block 2,0.6991083999746479,0.025,true,building,building,occlusion,control,mask,partial viewing,few large,Stimulus\all_stim\occlusion\partialviewing\fewlarge\control\fewlarge_partialViewing_control_building9.png,mask_img/000000005131.png,experiment,o,o,589.6976998000173
V3,20,23,Male,Right,163,Block 2,0.526381899981061,0.1,true,person,person,occlusion,control,mask,partial viewing,few large,Stimulus\all_stim\occlusion\partialviewing\fewlarge\control\fewlarge_partialViewing_control_person4.png,mask_img/000000009178.png,experiment,w,w,591.2971211000113
V3,20,23,Male,Right,164,Block 2,1.1255959999980405,0.025,true,cat,cat,occlusion,control,mask,partial viewing,few large,Stimulus\all_stim\occlusion\partialviewing\fewlarge\control\fewlarge_partialViewing_control_cat7.png,mask_img/000000007325.png,experiment,e,e,593.4896609999996
V3,20,23,Male,Right,165,Block 2,1.2866178000112996,0.05,true,building,building,occlusion,low,mask,partial viewing,many small,Stimulus\all_stim\occlusion\partialviewing\manysmall\low\manysmall_partialViewing_low_building5.png,mask_img/000000057930.png,experiment,o,o,595.4817313000094
V3,20,23,Male,Right,166,Block 2,1.1092172000207938,0.1,true,cat,cat,occlusion,high,mask,partial viewing,few large,Stimulus\all_stim\occlusion\partialviewing\fewlarge\high\fewlarge_partialViewing_high_cat1.png,mask_img/000000017183.png,experiment,e,e,597.6498386000167
V3,20,23,Male,Right,167,Block 2,0.5425660999899264,0.1,true,cat,cat,occlusion,high,mask,partial viewing,few large,Stimulus\all_stim\occlusion\partialviewing\fewlarge\high\fewlarge_partialViewing_high_cat2.png,mask_img/000000017352.png,experiment,e,e,599.0347558000067
V3,20,23,Male,Right,168,Block 2,0.7785413999808952,0.025,false,firehydrant,building,occlusion,high,mask,partial viewing,many small,Stimulus\all_stim\occlusion\partialviewing\manysmall\high\manysmall_partialViewing_high_firehydrant3.png,mask_img/000000050276.png,experiment,o,q,600.5618330000143
V3,20,23,Male,Right,169,Block 2,0.8071175999939442,0.025,true,firehydrant,firehydrant,occlusion,low,mask,partial viewing,many small,Stimulus\all_stim\occlusion\partialviewing\manysmall\low\manysmall_partialViewing_low_firehydrant10.png,mask_img/000000060529.png,experiment,q,q,602.2098240000196
V3,20,23,Male,Right,170,Block 2,0.7317703999869991,0.025,true,building,building,occlusion,low,mask,partial viewing,few large,Stimulus\all_stim\occlusion\partialviewing\fewlarge\low\fewlarge_partialViewing_low_building3.png,mask_img/000000024808.png,experiment,o,o,603.6499679000117
V3,20,23,Male,Right,171,Block 2,0.8639380999957211,0.1,true,firehydrant,firehydrant,occlusion,high,mask,partial viewing,few large,Stimulus\all_stim\occlusion\partialviewing\fewlarge\high\fewlarge_partialViewing_high_firehydrant2.png,mask_img/000000018743.png,experiment,q,q,605.5456336000061
V3,20,23,Male,Right,172,Block 2,0.7327350999985356,0.05,true,person,person,occlusion,control,mask,partial viewing,many small,Stimulus\all_stim\occlusion\partialviewing\manysmall\control\manysmall_partialViewing_control_person9.png,mask_img/000000040771.png,experiment,w,w,607.3064077000017
V3,20,23,Male,Right,173,Block 2,0.6754782000207342,0.1,true,banana,banana,occlusion,high,mask,partial viewing,few large,Stimulus\all_stim\occlusion\partialviewing\fewlarge\high\fewlarge_partialViewing_high_banana6.png,mask_img/000000012548.png,experiment,u,u,608.7725271999952
V3,20,23,Male,Right,174,Block 2,0.9654958000173792,0.05,true,bus,bus,occlusion,low,mask,partial viewing,few large,Stimulus\all_stim\occlusion\partialviewing\fewlarge\low\fewlarge_partialViewing_low_bus6.png,mask_img/000000026503.png,experiment,i,i,610.7778659000178
V3,20,23,Male,Right,175,Block 2,0.5702114999876358,0.05,true,bus,bus,occlusion,low,mask,partial viewing,many small,Stimulus\all_stim\occlusion\partialviewing\manysmall\low\manysmall_partialViewing_low_bus7.png,mask_img/000000058822.png,experiment,i,i,612.3575393999927
V3,20,23,Male,Right,176,Block 2,0.5355582000047434,0.05,true,bird,bird,occlusion,high,mask,partial viewing,few large,Stimulus\all_stim\occlusion\partialviewing\fewlarge\high\fewlarge_partialViewing_high_bird4.png,mask_img/000000013721.png,experiment,p,p,613.8915949999937
V3,20,23,Male,Right,177,Block 2,0.59403520001797,0.1,true,person,person,occlusion,low,mask,partial viewing,few large,Stimulus\all_stim\occlusion\partialviewing\fewlarge\low\fewlarge_partialViewing_low_person8.png,mask_img/000000030611.png,experiment,w,w,615.3757603999984
V3,20,23,Male,Right,178,Block 2,0.6771146999963094,0.025,true,firehydrant,firehydrant,occlusion,high,mask,partial viewing,many small,Stimulus\all_stim\occlusion\partialviewing\manysmall\high\manysmall_partialViewing_high_firehydrant2.png,mask_img/000000050239.png,experiment,q,q,616.8596849000023
V3,20,23,Male,Right,179,Block 2,0.6207618999760598,0.025,true,bird,bird,occlusion,control,mask,partial viewing,many small,Stimulus\all_stim\occlusion\partialviewing\manysmall\control\manysmall_partialViewing_control_bird7.png,mask_img/000000035132.png,experiment,p,p,618.6417712999973
V3,20,23,Male,Right,180,Block 2,0.8196112000150606,0.025,true,tree,tree,occlusion,high,mask,partial viewing,few large,Stimulus\all_stim\occlusion\partialviewing\fewlarge\high\fewlarge_partialViewing_high_tree3.png,mask_img/000000021942.png,experiment,r,r,620.2337049000198
V3,20,23,Male,Right,181,Block 2,0.5770543999969959,0.1,true,firehydrant,firehydrant,occlusion,control,mask,partial viewing,many small,Stimulus\all_stim\occlusion\partialviewing\manysmall\control\manysmall_partialViewing_control_firehydrant9.png,mask_img/000000039643.png,experiment,q,q,621.9625956999953
V3,20,23,Male,Right,182,Block 2,0.5836739999940619,0.1,true,banana,banana,occlusion,control,mask,partial viewing,many small,Stimulus\all_stim\occlusion\partialviewing\manysmall\control\manysmall_partialViewing_control_banana2.png,mask_img/000000033126.png,experiment,u,u,623.3630437999964
V3,20,23,Male,Right,183,Block 2,0.6763943000114523,0.05,true,building,building,occlusion,high,mask,partial viewing,few large,Stimulus\all_stim\occlusion\partialviewing\fewlarge\high\fewlarge_partialViewing_high_building1.png,mask_img/000000014335.png,experiment,o,o,624.729024100001
V3,20,23,Male,Right,184,Block 2,0.49858929999754764,0.1,true,bus,bus,occlusion,control,mask,partial viewing,few large,Stimulus\all_stim\occlusion\partialviewing\fewlarge\control\fewlarge_partialViewing_control_bus4.png,mask_img/000000005574.png,experiment,i,i,626.0310133000021
V3,20,23,Male,Right,185,Block 2,0.7017835000006016,0.1,true,building,building,occlusion,low,mask,partial viewing,many small,Stimulus\all_stim\occlusion\partialviewing\manysmall\low\manysmall_partialViewing_low_building2.png,mask_img/000000057551.png,experiment,o,o,627.4318524000118
V3,20,23,Male,Right,186,Block 2,1.1884482999739703,0.05,true,cat,cat,occlusion,control,mask,partial viewing,few large,Stimulus\all_stim\occlusion\partialviewing\fewlarge\control\fewlarge_partialViewing_control_cat9.png,mask_img/000000007558.png,experiment,e,e,629.5778334000206
V3,20,23,Male,Right,187,Block 2,0.6178125999867916,0.025,true,person,person,occlusion,control,mask,partial viewing,many small,Stimulus\all_stim\occlusion\partialviewing\manysmall\control\manysmall_partialViewing_control_person3.png,mask_img/000000040008.png,experiment,w,w,631.1463322000054
V3,20,23,Male,Right,188,Block 2,0.9731642999977339,0.025,false,building,firehydrant,occlusion,high,mask,partial viewing,few large,Stimulus\all_stim\occlusion\partialviewing\fewlarge\high\fewlarge_partialViewing_high_building5.png,mask_img/000000014759.png,experiment,q,o,633.225817700004
V3,20,23,Male,Right,189,Block 2,0.6694156000157818,0.05,true,building,building,occlusion,low,mask,partial viewing,few large,Stimulus\all_stim\occlusion\partialviewing\fewlarge\low\fewlarge_partialViewing_low_building5.png,mask_img/000000025034.png,experiment,o,o,634.8820485000033
V3,20,23,Male,Right,190,Block 2,0.8042574000137392,0.1,true,person,person,occlusion,low,mask,partial viewing,many small,Stimulus\all_stim\occlusion\partialviewing\manysmall\low\manysmall_partialViewing_low_person2.png,mask_img/000000061867.png,experiment,w,w,636.5457252000051
V3,20,23,Male,Right,191,Block 2,0.6829715000058059,0.1,false,cat,tree,occlusion,control,mask,partial viewing,few large,Stimulus\all_stim\occlusion\partialviewing\fewlarge\control\fewlarge_partialViewing_control_cat2.png,mask_img/000000006489.png,experiment,r,e,638.1041000999976
V3,20,23,Male,Right,192,Block 2,0.7338923000206705,0.05,true,building,building,occlusion,control,mask,partial viewing,few large,Stimulus\all_stim\occlusion\partialviewing\fewlarge\control\fewlarge_partialViewing_control_building10.png,mask_img/000000003225.png,experiment,o,o,640.0498010000156
V3,20,23,Male,Right,193,Block 2,0.6321917000168469,0.025,true,tree,tree,occlusion,control,mask,partial viewing,few large,Stimulus\all_stim\occlusion\partialviewing\fewlarge\control\fewlarge_partialViewing_control_tree9.png,mask_img/000000011701.png,experiment,r,r,641.8341859999928
V3,20,23,Male,Right,194,Block 2,0.6307584999885876,0.05,true,person,person,occlusion,high,mask,partial viewing,few large,Stimulus\all_stim\occlusion\partialviewing\fewlarge\high\fewlarge_partialViewing_high_person1.png,mask_img/000000019759.png,experiment,w,w,643.3395744000154
V3,20,23,Male,Right,195,Block 2,0.7101534999965224,0.025,true,bird,bird,occlusion,control,mask,partial viewing,many small,Stimulus\all_stim\occlusion\partialviewing\manysmall\control\manysmall_partialViewing_control_bird1.png,mask_img/000000034113.png,experiment,p,p,644.970138500008
V3,20,23,Male,Right,196,Block 2,0.6575201000086963,0.1,true,tree,tree,occlusion,control,mask,partial viewing,many small,Stimulus\all_stim\occlusion\partialviewing\manysmall\control\manysmall_partialViewing_control_tree2.png,mask_img/000000041008.png,experiment,r,r,646.5912226999935
V3,20,23,Male,Right,197,Block 2,0.7696405999886338,0.05,true,bird,bird,occlusion,high,mask,partial viewing,many small,Stimulus\all_stim\occlusion\partialviewing\manysmall\high\manysmall_partialViewing_high_bird7.png,mask_img/000000044580.png,experiment,p,p,648.5222327999945
V3,20,23,Male,Right,198,Block 2,0.5772390000056475,0.05,true,person,person,occlusion,control,mask,partial viewing,few large,Stimulus\all_stim\occlusion\partialviewing\fewlarge\control\fewlarge_partialViewing_control_person3.png,mask_img/000000008920.png,experiment,w,w,650.2432710000139
V3,20,23,Male,Right,199,Block 2,0.5634847999899648,0.05,true,firehydrant,firehydrant,occlusion,control,mask,partial viewing,few large,Stimulus\all_stim\occlusion\partialviewing\fewlarge\control\fewlarge_partialViewing_control_firehydrant1.png,mask_img/000000007740.png,experiment,q,q,651.6436342000088
V3,20,23,Male,Right,200,Block 2,0.5598726000171155,0.1,true,building,building,occlusion,high,mask,partial viewing,many small,Stimulus\all_stim\occlusion\partialviewing\manysmall\high\manysmall_partialViewing_high_building9.png,mask_img/000000046345.png,experiment,o,o,653.16111060002
V3,20,23,Male,Right,201,Block 2,0.48909710001316853,0.025,true,building,building,occlusion,low,mask,partial viewing,many small,Stimulus\all_stim\occlusion\partialviewing\manysmall\low\manysmall_partialViewing_low_building7.png,mask_img/000000058021.png,experiment,o,o,654.6783958000015
V3,20,23,Male,Right,202,Block 2,1.0117774000100326,0.025,false,bird,cat,occlusion,high,mask,partial viewing,many small,Stimulus\all_stim\occlusion\partialviewing\manysmall\high\manysmall_partialViewing_high_bird9.png,mask_img/000000044946.png,experiment,e,p,656.7620417000144
V3,20,23,Male,Right,203,Block 2,0.6802718999970239,0.05,true,firehydrant,firehydrant,occlusion,control,mask,partial viewing,few large,Stimulus\all_stim\occlusion\partialviewing\fewlarge\control\fewlarge_partialViewing_control_firehydrant7.png,mask_img/000000008053.png,experiment,q,q,658.1459520000208
V3,20,23,Male,Right,204,Block 2,1.1200003999983892,0.025,true,cat,cat,occlusion,control,mask,partial viewing,many small,Stimulus\all_stim\occlusion\partialviewing\manysmall\control\manysmall_partialViewing_control_cat3.png,mask_img/000000038381.png,experiment,e,e,660.36970380001
V3,20,23,Male,Right,205,Block 2,1.4105091000092216,0.05,false,cat,bird,occlusion,low,mask,partial viewing,few large,Stimulus\all_stim\occlusion\partialviewing\fewlarge\low\fewlarge_partialViewing_low_cat4.png,mask_img/000000027675.png,experiment,p,e,662.8025048999989
V3,20,23,Male,Right,206,Block 2,0.7095684999949299,0.05,true,banana,banana,occlusion,high,mask,partial viewing,few large,Stimulus\all_stim\occlusion\partialviewing\fewlarge\high\fewlarge_partialViewing_high_banana8.png,mask_img/000000012733.png,experiment,u,u,664.2339558000094
V3,20,23,Male,Right,207,Block 2,0.7228107999835629,0.05,false,tree,cat,occlusion,control,mask,partial viewing,many small,Stimulus\all_stim\occlusion\partialviewing\manysmall\control\manysmall_partialViewing_control_tree9.png,mask_img/000000041840.png,experiment,e,r,666.0742651000037
V3,20,23,Male,Right,208,Block 2,1.0345862000249326,0.05,true,cat,cat,occlusion,control,mask,partial viewing,many small,Stimulus\all_stim\occlusion\partialviewing\manysmall\control\manysmall_partialViewing_control_cat8.png,mask_img/000000038817.png,experiment,e,e,667.9938847000012
V3,20,23,Male,Right,209,Block 2,0.6890796000079717,0.1,true,banana,banana,occlusion,low,mask,partial viewing,few large,Stimulus\all_stim\occlusion\partialviewing\fewlarge\low\fewlarge_partialViewing_low_banana8.png,mask_img/000000023656.png,experiment,u,u,669.5692148999951
V3,20,23,Male,Right,210,Block 2,1.4356261999928392,0.1,true,firehydrant,firehydrant,occlusion,high,mask,partial viewing,many small,Stimulus\all_stim\occlusion\partialviewing\manysmall\high\manysmall_partialViewing_high_firehydrant3.png,mask_img/000000050276.png,experiment,q,q,671.8662340000155
V3,20,23,Male,Right,211,Block 2,0.6303941000078339,0.1,true,bird,bird,occlusion,control,mask,partial viewing,many small,Stimulus\all_stim\occlusion\partialviewing\manysmall\control\manysmall_partialViewing_control_bird4.png,mask_img/000000034691.png,experiment,p,p,673.4377463000128
V3,20,23,Male,Right,212,Block 2,0.8622552999877371,0.1,true,person,person,occlusion,control,mask,partial viewing,many small,Stimulus\all_stim\occlusion\partialviewing\manysmall\control\manysmall_partialViewing_control_person4.png,mask_img/000000040042.png,experiment,w,w,675.3377638999955
V3,20,23,Male,Right,213,Block 2,0.7945307999907527,0.025,true,person,person,occlusion,control,mask,partial viewing,many small,Stimulus\all_stim\occlusion\partialviewing\manysmall\control\manysmall_partialViewing_control_person7.png,mask_img/000000040399.png,experiment,w,w,676.9465538999939
V3,20,23,Male,Right,214,Block 2,1.0504204999888316,0.025,true,bus,bus,occlusion,control,mask,partial viewing,many small,Stimulus\all_stim\occlusion\partialviewing\manysmall\control\manysmall_partialViewing_control_bus5.png,mask_img/000000037140.png,experiment,i,i,678.6741184999992
V3,20,23,Male,Right,215,Block 2,0.5934240000206046,0.1,true,banana,banana,occlusion,control,mask,partial viewing,many small,Stimulus\all_stim\occlusion\partialviewing\manysmall\control\manysmall_partialViewing_control_banana4.png,mask_img/000000033667.png,experiment,u,u,680.2917998000048
V3,20,23,Male,Right,216,Block 2,0.14446469998802058,0.05,false,firehydrant,banana,occlusion,high,mask,partial viewing,many small,Stimulus\all_stim\occlusion\partialviewing\manysmall\high\manysmall_partialViewing_high_firehydrant10.png,mask_img/000000050148.png,experiment,u,q,681.6090161000029
V3,20,23,Male,Right,217,Block 2,0.5270345000026282,0.05,false,person,firehydrant,occlusion,low,mask,partial viewing,few large,Stimulus\all_stim\occlusion\partialviewing\fewlarge\low\fewlarge_partialViewing_low_person4.png,mask_img/000000029730.png,experiment,q,w,683.0924207000062
V3,20,23,Male,Right,218,Block 2,0.7029768000065815,0.025,true,building,building,occlusion,low,mask,partial viewing,many small,Stimulus\all_stim\occlusion\partialviewing\manysmall\low\manysmall_partialViewing_low_building8.png,mask_img/000000058073.png,experiment,o,o,684.97540570001
V3,20,23,Male,Right,219,Block 2,0.8628750999923795,0.1,true,firehydrant,firehydrant,occlusion,high,mask,partial viewing,few large,Stimulus\all_stim\occlusion\partialviewing\fewlarge\high\fewlarge_partialViewing_high_firehydrant8.png,mask_img/000000019528.png,experiment,q,q,686.6098951000022
V3,20,23,Male,Right,220,Block 2,0.761387200007448,0.025,true,banana,banana,occlusion,low,mask,partial viewing,many small,Stimulus\all_stim\occlusion\partialviewing\manysmall\low\manysmall_partialViewing_low_banana2.png,mask_img/000000054759.png,experiment,u,u,688.410117899999
V3,20,23,Male,Right,221,Block 2,0.755788600014057,0.025,true,person,person,occlusion,control,mask,partial viewing,few large,Stimulus\all_stim\occlusion\partialviewing\fewlarge\control\fewlarge_partialViewing_control_person10.png,mask_img/000000008469.png,experiment,w,w,690.3458459000103
V3,20,23,Male,Right,222,Block 2,0.6487569999881089,0.05,true,building,building,occlusion,control,mask,partial viewing,many small,Stimulus\all_stim\occlusion\partialviewing\manysmall\control\manysmall_partialViewing_control_building5.png,mask_img/000000036004.png,experiment,o,o,692.1219029000204
V3,20,23,Male,Right,223,Block 2,0.6676551999989897,0.1,true,bird,bird,occlusion,high,mask,partial viewing,many small,Stimulus\all_stim\occlusion\partialviewing\manysmall\high\manysmall_partialViewing_high_bird8.png,mask_img/000000044831.png,experiment,p,p,693.9980054000043
V3,20,23,Male,Right,224,Block 2,0.5437982000003103,0.025,true,building,building,occlusion,high,mask,partial viewing,few large,Stimulus\all_stim\occlusion\partialviewing\fewlarge\high\fewlarge_partialViewing_high_building10.png,mask_img/000000014428.png,experiment,o,o,695.4652070000011
V3,20,23,Male,Right,225,Block 2,0.6597575999912806,0.025,true,building,building,occlusion,control,mask,partial viewing,many small,Stimulus\all_stim\occlusion\partialviewing\manysmall\control\manysmall_partialViewing_control_building6.png,mask_img/000000036006.png,experiment,o,o,696.994147999998
V3,20,23,Male,Right,226,Block 2,1.0693512000143528,0.025,false,cat,firehydrant,occlusion,low,mask,partial viewing,few large,Stimulus\all_stim\occlusion\partialviewing\fewlarge\low\fewlarge_partialViewing_low_cat2.png,mask_img/000000027371.png,experiment,q,e,699.0906976000115
V3,20,23,Male,Right,227,Block 2,0.6551995000045281,0.05,true,banana,banana,occlusion,low,mask,partial viewing,few large,Stimulus\all_stim\occlusion\partialviewing\fewlarge\low\fewlarge_partialViewing_low_banana1.png,mask_img/000000022545.png,experiment,u,u,700.6340512000024
V3,20,23,Male,Right,228,Block 2,0.8443120000010822,0.025,false,tree,bird,occlusion,high,mask,partial viewing,few large,Stimulus\all_stim\occlusion\partialviewing\fewlarge\high\fewlarge_partialViewing_high_tree10.png,mask_img/000000021419.png,experiment,p,r,702.3461400000087
V3,20,23,Male,Right,229,Block 2,1.348496700025862,0.025,false,banana,bird,occlusion,high,mask,partial viewing,many small,Stimulus\all_stim\occlusion\partialviewing\manysmall\high\manysmall_partialViewing_high_banana6.png,mask_img/000000042704.png,experiment,p,u,704.4743834999972
V3,20,23,Male,Right,230,Block 2,0.9505950000020675,0.05,true,tree,tree,occlusion,high,mask,partial viewing,few large,Stimulus\all_stim\occlusion\partialviewing\fewlarge\high\fewlarge_partialViewing_high_tree2.png,mask_img/000000021641.png,experiment,r,r,706.5540560999943
V3,20,23,Male,Right,231,Block 2,1.1416506000095978,0.1,true,bus,bus,occlusion,high,mask,partial viewing,many small,Stimulus\all_stim\occlusion\partialviewing\manysmall\high\manysmall_partialViewing_high_bus1.png,mask_img/000000046676.png,experiment,i,i,708.8578752000176
V3,20,23,Male,Right,232,Block 2,1.2070617999997921,0.025,false,cat,person,occlusion,low,mask,partial viewing,few large,Stimulus\all_stim\occlusion\partialviewing\fewlarge\low\fewlarge_partialViewing_low_cat9.png,mask_img/000000028231.png,experiment,w,e,710.9619035999931
V3,20,23,Male,Right,233,Block 2,1.0574699999997392,0.1,true,banana,banana,occlusion,high,mask,partial viewing,many small,Stimulus\all_stim\occlusion\partialviewing\manysmall\high\manysmall_partialViewing_high_banana9.png,mask_img/000000043579.png,experiment,u,u,712.8339414999937
V3,20,23,Male,Right,234,Block 2,1.033846000005724,0.05,true,building,building,occlusion,low,mask,partial viewing,many small,Stimulus\all_stim\occlusion\partialviewing\manysmall\low\manysmall_partialViewing_low_building2.png,mask_img/000000057551.png,experiment,o,o,714.9780235000071
V3,20,23,Male,Right,235,Block 2,0.8293987999786623,0.1,true,firehydrant,firehydrant,occlusion,control,mask,partial viewing,many small,Stimulus\all_stim\occlusion\partialviewing\manysmall\control\manysmall_partialViewing_control_firehydrant10.png,mask_img/000000039053.png,experiment,q,q,716.5460478000168
V3,20,23,Male,Right,236,Block 2,0.6843039999948815,0.05,true,banana,banana,occlusion,high,mask,partial viewing,few large,Stimulus\all_stim\occlusion\partialviewing\fewlarge\high\fewlarge_partialViewing_high_banana9.png,mask_img/000000012999.png,experiment,u,u,718.2900506000151
V3,20,23,Male,Right,237,Block 2,0.9105081999732647,0.025,true,firehydrant,firehydrant,occlusion,high,mask,partial viewing,many small,Stimulus\all_stim\occlusion\partialviewing\manysmall\high\manysmall_partialViewing_high_firehydrant9.png,mask_img/000000051164.png,experiment,q,q,720.2499991999939
V3,20,23,Male,Right,238,Block 2,0.7580898000160232,0.025,true,banana,banana,occlusion,high,mask,partial viewing,many small,Stimulus\all_stim\occlusion\partialviewing\manysmall\high\manysmall_partialViewing_high_banana1.png,mask_img/000000041962.png,experiment,u,u,722.0501014000038
V3,20,23,Male,Right,239,Block 2,1.2057397000025958,0.025,true,building,building,occlusion,high,mask,partial viewing,many small,Stimulus\all_stim\occlusion\partialviewing\manysmall\high\manysmall_partialViewing_high_building9.png,mask_img/000000046345.png,experiment,o,o,724.0666839000187
V3,20,23,Male,Right,240,Block 2,0.8089429000101518,0.025,true,firehydrant,firehydrant,occlusion,high,mask,partial viewing,few large,Stimulus\all_stim\occlusion\partialviewing\fewlarge\high\fewlarge_partialViewing_high_firehydrant8.png,mask_img/000000019528.png,experiment,q,q,725.682089400012
V3,20,23,Male,Right,241,Block 2,0.953540399990743,0.025,true,building,building,occlusion,high,mask,partial viewing,many small,Stimulus\all_stim\occlusion\partialviewing\manysmall\high\manysmall_partialViewing_high_building3.png,mask_img/000000045655.png,experiment,o,o,727.5461873000022
V3,20,23,Male,Right,242,Block 2,1.1835484000039287,0.05,false,bird,person,occlusion,high,mask,partial viewing,many small,Stimulus\all_stim\occlusion\partialviewing\manysmall\high\manysmall_partialViewing_high_bird4.png,mask_img/000000044136.png,experiment,w,p,729.4340621000156
V3,20,23,Male,Right,243,Block 2,0.7283328000048641,0.1,true,person,person,occlusion,control,mask,partial viewing,few large,Stimulus\all_stim\occlusion\partialviewing\fewlarge\control\fewlarge_partialViewing_control_person1.png,mask_img/000000008341.png,experiment,w,w,731.2739722999977
V3,20,23,Male,Right,244,Block 2,1.0789293000125326,0.05,false,cat,person,occlusion,high,mask,partial viewing,many small,Stimulus\all_stim\occlusion\partialviewing\manysmall\high\manysmall_partialViewing_high_cat9.png,mask_img/000000049933.png,experiment,w,e,733.3222131000075
V3,20,23,Male,Right,245,Block 2,0.7030174000246916,0.1,true,building,building,occlusion,high,mask,partial viewing,few large,Stimulus\all_stim\occlusion\partialviewing\fewlarge\high\fewlarge_partialViewing_high_building3.png,mask_img/000000014567.png,experiment,o,o,734.9348653000197
V3,20,23,Male,Right,246,Block 2,0.6357679999782704,0.05,true,firehydrant,firehydrant,occlusion,control,mask,partial viewing,few large,Stimulus\all_stim\occlusion\partialviewing\fewlarge\control\fewlarge_partialViewing_control_firehydrant4.png,mask_img/000000007952.png,experiment,q,q,736.5862211000058
V3,20,23,Male,Right,247,Block 2,1.2471049000159837,0.1,true,cat,cat,occlusion,control,mask,partial viewing,few large,Stimulus\all_stim\occlusion\partialviewing\fewlarge\control\fewlarge_partialViewing_control_cat8.png,mask_img/000000007393.png,experiment,e,e,738.8663554000086
V3,20,23,Male,Right,248,Block 2,0.732594600005541,0.025,true,person,person,occlusion,low,mask,partial viewing,few large,Stimulus\all_stim\occlusion\partialviewing\fewlarge\low\fewlarge_partialViewing_low_person5.png,mask_img/000000029964.png,experiment,w,w,740.7860060000094
V3,20,23,Male,Right,249,Block 2,0.8102261000021826,0.05,true,building,building,occlusion,high,mask,partial viewing,many small,Stimulus\all_stim\occlusion\partialviewing\manysmall\high\manysmall_partialViewing_high_building5.png,mask_img/000000046029.png,experiment,o,o,742.3222926000017
V3,20,23,Male,Right,250,Block 2,0.9572825000213925,0.05,true,person,person,occlusion,high,mask,partial viewing,many small,Stimulus\all_stim\occlusion\partialviewing\manysmall\high\manysmall_partialViewing_high_person5.png,mask_img/000000052250.png,experiment,w,w,744.3946391000063
V3,20,23,Male,Right,251,Block 2,0.6974717999983113,0.025,true,person,person,occlusion,high,mask,partial viewing,many small,Stimulus\all_stim\occlusion\partialviewing\manysmall\high\manysmall_partialViewing_high_person1.png,mask_img/000000051310.png,experiment,w,w,745.9781625000178
V3,20,23,Male,Right,252,Block 2,0.8368186999869067,0.025,true,tree,tree,occlusion,low,mask,partial viewing,many small,Stimulus\all_stim\occlusion\partialviewing\manysmall\low\manysmall_partialViewing_low_tree7.png,mask_img/000000063754.png,experiment,r,r,747.9703153000155
V3,20,23,Male,Right,253,Block 2,0.8169415000011213,0.05,true,tree,tree,occlusion,low,mask,partial viewing,few large,Stimulus\all_stim\occlusion\partialviewing\fewlarge\low\fewlarge_partialViewing_low_tree10.png,mask_img/000000031454.png,experiment,r,r,749.6101073000173
V3,20,23,Male,Right,254,Block 2,1.2384750999917742,0.1,true,bus,bus,occlusion,high,mask,partial viewing,few large,Stimulus\all_stim\occlusion\partialviewing\fewlarge\high\fewlarge_partialViewing_high_bus2.png,mask_img/000000015862.png,experiment,i,i,751.7226047000149
V3,20,23,Male,Right,255,Block 2,0.6986316000111401,0.025,true,person,person,occlusion,control,mask,partial viewing,many small,Stimulus\all_stim\occlusion\partialviewing\manysmall\control\manysmall_partialViewing_control_person9.png,mask_img/000000040771.png,experiment,w,w,753.554183500004
V3,20,23,Male,Right,256,Block 2,1.8290135000133887,0.1,true,tree,tree,occlusion,high,mask,partial viewing,few large,Stimulus\all_stim\occlusion\partialviewing\fewlarge\high\fewlarge_partialViewing_high_tree7.png,mask_img/000000022256.png,experiment,r,r,756.1062796000042
V3,20,23,Male,Right,257,Block 2,1.236406599986367,0.025,false,cat,building,occlusion,high,mask,partial viewing,many small,Stimulus\all_stim\occlusion\partialviewing\manysmall\high\manysmall_partialViewing_high_cat2.png,mask_img/000000049092.png,experiment,o,e,758.3861883000063
V3,20,23,Male,Right,258,Block 2,0.7354493000020739,0.025,true,banana,banana,occlusion,control,mask,partial viewing,few large,Stimulus\all_stim\occlusion\partialviewing\fewlarge\control\fewlarge_partialViewing_control_banana1.png,mask_img/000000000042.png,experiment,u,u,760.2985947999987
V3,20,23,Male,Right,259,Block 2,0.7287431999866385,0.05,true,tree,tree,occlusion,control,mask,partial viewing,few large,Stimulus\all_stim\occlusion\partialviewing\fewlarge\control\fewlarge_partialViewing_control_tree4.png,mask_img/000000010969.png,experiment,r,r,762.010233900015
V3,20,23,Male,Right,260,Block 2,0.5295636999944691,0.05,true,banana,banana,occlusion,low,mask,partial viewing,few large,Stimulus\all_stim\occlusion\partialviewing\fewlarge\low\fewlarge_partialViewing_low_banana10.png,mask_img/000000022563.png,experiment,u,u,763.3158115000115
V3,20,23,Male,Right,261,Block 2,0.641549899999518,0.1,true,firehydrant,firehydrant,occlusion,low,mask,partial viewing,few large,Stimulus\all_stim\occlusion\partialviewing\fewlarge\low\fewlarge_partialViewing_low_firehydrant9.png,mask_img/000000029056.png,experiment,q,q,765.0164956999943
V3,20,23,Male,Right,262,Block 2,0.6033729999908246,0.05,true,banana,banana,occlusion,high,mask,partial viewing,few large,Stimulus\all_stim\occlusion\partialviewing\fewlarge\high\fewlarge_partialViewing_high_banana5.png,mask_img/000000012543.png,experiment,u,u,766.3842997000029
V3,20,23,Male,Right,263,Block 2,1.1704999000066891,0.025,true,bus,bus,occlusion,low,mask,partial viewing,many small,Stimulus\all_stim\occlusion\partialviewing\manysmall\low\manysmall_partialViewing_low_bus7.png,mask_img/000000058822.png,experiment,i,i,768.6426861000073
V3,20,23,Male,Right,264,Block 2,1.2079032000037841,0.025,false,bird,tree,occlusion,high,mask,partial viewing,many small,Stimulus\all_stim\occlusion\partialviewing\manysmall\high\manysmall_partialViewing_high_bird5.png,mask_img/000000044437.png,experiment,r,p,770.914306599996
V3,20,23,Male,Right,265,Block 2,0.5812958000169601,0.1,true,banana,banana,occlusion,high,mask,partial viewing,few large,Stimulus\all_stim\occlusion\partialviewing\fewlarge\high\fewlarge_partialViewing_high_banana5.png,mask_img/000000012543.png,experiment,u,u,772.4868993000127
V3,20,23,Male,Right,266,Block 2,0.5443213000253309,0.025,true,banana,banana,occlusion,control,mask,partial viewing,few large,Stimulus\all_stim\occlusion\partialviewing\fewlarge\control\fewlarge_partialViewing_control_banana8.png,mask_img/000000000690.png,experiment,u,u,774.0543307000189
V3,20,23,Male,Right,267,Block 2,0.6527551999897696,0.025,true,bird,bird,occlusion,high,mask,partial viewing,many small,Stimulus\all_stim\occlusion\partialviewing\manysmall\high\manysmall_partialViewing_high_bird10.png,mask_img/000000044065.png,experiment,p,p,775.8663722000201
V3,20,23,Male,Right,268,Block 2,1.0681346000055782,0.05,true,tree,tree,occlusion,low,mask,partial viewing,few large,Stimulus\all_stim\occlusion\partialviewing\fewlarge\low\fewlarge_partialViewing_low_tree4.png,mask_img/000000032364.png,experiment,r,r,777.6822938999976
V3,20,23,Male,Right,269,Block 2,0.9609530000016093,0.025,true,person,person,occlusion,high,mask,partial viewing,many small,Stimulus\all_stim\occlusion\partialviewing\manysmall\high\manysmall_partialViewing_high_person5.png,mask_img/000000052250.png,experiment,w,w,779.5622839000134
V3,20,23,Male,Right,270,Block 2,0.7130773999961093,0.1,true,tree,tree,occlusion,control,mask,partial viewing,few large,Stimulus\all_stim\occlusion\partialviewing\fewlarge\control\fewlarge_partialViewing_control_tree3.png,mask_img/000000010566.png,experiment,r,r,781.3463672999933
V3,20,23,Male,Right,271,Block 2,1.2446432000142522,0.1,true,building,building,occlusion,control,mask,partial viewing,many small,Stimulus\all_stim\occlusion\partialviewing\manysmall\control\manysmall_partialViewing_control_building5.png,mask_img/000000036004.png,experiment,o,o,783.4262140000064
V3,20,23,Male,Right,272,Block 2,1.1072833000216633,0.05,true,cat,cat,occlusion,control,mask,partial viewing,few large,Stimulus\all_stim\occlusion\partialviewing\fewlarge\control\fewlarge_partialViewing_control_cat2.png,mask_img/000000006489.png,experiment,e,e,785.6747327000194
V3,20,23,Male,Right,273,Block 2,1.0702914000139572,0.1,true,person,person,occlusion,low,mask,partial viewing,few large,Stimulus\all_stim\occlusion\partialviewing\fewlarge\low\fewlarge_partialViewing_low_person10.png,mask_img/000000029128.png,experiment,w,w,787.8102647000051
V3,20,23,Male,Right,274,Block 2,1.0287586000049487,0.025,true,tree,tree,occlusion,low,mask,partial viewing,few large,Stimulus\all_stim\occlusion\partialviewing\fewlarge\low\fewlarge_partialViewing_low_tree9.png,mask_img/000000032965.png,experiment,r,r,789.8592314000125
V3,20,23,Male,Right,275,Block 2,1.212910500005819,0.1,true,building,building,occlusion,high,mask,partial viewing,few large,Stimulus\all_stim\occlusion\partialviewing\fewlarge\high\fewlarge_partialViewing_high_building8.png,mask_img/000000015366.png,experiment,o,o,792.1460397000192
V3,20,23,Male,Right,276,Block 2,0.8397027000028174,0.05,true,bird,bird,occlusion,control,mask,partial viewing,few large,Stimulus\all_stim\occlusion\partialviewing\fewlarge\control\fewlarge_partialViewing_control_bird4.png,mask_img/000000001997.png,experiment,p,p,794.0186106000037
V3,20,23,Male,Right,277,Block 2,0.8074456000176724,0.025,true,firehydrant,firehydrant,occlusion,control,mask,partial viewing,few large,Stimulus\all_stim\occlusion\partialviewing\fewlarge\control\fewlarge_partialViewing_control_firehydrant10.png,mask_img/000000007758.png,experiment,q,q,795.9301742000098
V3,20,23,Male,Right,278,Block 2,0.7438207999803126,0.05,true,bird,bird,occlusion,control,mask,partial viewing,many small,Stimulus\all_stim\occlusion\partialviewing\manysmall\control\manysmall_partialViewing_control_bird2.png,mask_img/000000034455.png,experiment,p,p,797.354168299993
V3,20,23,Male,Right,279,Block 2,0.796530099993106,0.05,true,building,building,occlusion,control,mask,partial viewing,few large,Stimulus\all_stim\occlusion\partialviewing\fewlarge\control\fewlarge_partialViewing_control_building7.png,mask_img/000000004936.png,experiment,o,o,799.0183715000167
V3,20,23,Male,Right,280,Block 2,0.710481299989624,0.1,true,firehydrant,firehydrant,occlusion,low,mask,partial viewing,many small,Stimulus\all_stim\occlusion\partialviewing\manysmall\low\manysmall_partialViewing_low_firehydrant10.png,mask_img/000000060529.png,experiment,q,q,800.6271121000173
V3,20,23,Male,Right,281,Block 2,0.5882812999770977,0.1,true,bird,bird,occlusion,control,mask,partial viewing,few large,Stimulus\all_stim\occlusion\partialviewing\fewlarge\control\fewlarge_partialViewing_control_bird7.png,mask_img/000000002774.png,experiment,p,p,802.3854635000171
V3,20,23,Male,Right,282,Block 2,0.5816317000135314,0.1,true,banana,banana,occlusion,control,mask,partial viewing,many small,Stimulus\all_stim\occlusion\partialviewing\manysmall\control\manysmall_partialViewing_control_banana9.png,mask_img/000000033955.png,experiment,u,u,803.8189274000179
V3,20,23,Male,Right,283,Block 2,0.5610733999928925,0.1,true,firehydrant,firehydrant,occlusion,low,mask,partial viewing,few large,Stimulus\all_stim\occlusion\partialviewing\fewlarge\low\fewlarge_partialViewing_low_firehydrant5.png,mask_img/000000028698.png,experiment,q,q,805.4528446000186
V3,20,23,Male,Right,284,Block 2,1.3821416000137106,0.025,false,banana,tree,occlusion,high,mask,partial viewing,many small,Stimulus\all_stim\occlusion\partialviewing\manysmall\high\manysmall_partialViewing_high_banana10.png,mask_img/000000042196.png,experiment,r,u,807.5542919000145
V3,20,23,Male,Right,285,Block 2,1.6903381000156514,0.05,true,bird,bird,occlusion,control,mask,partial viewing,few large,Stimulus\all_stim\occlusion\partialviewing\fewlarge\control\fewlarge_partialViewing_control_bird2.png,mask_img/000000001647.png,experiment,p,p,810.258401900006
V3,20,23,Male,Right,286,Block 2,0.7302418000181206,0.025,true,banana,banana,occlusion,high,mask,partial viewing,few large,Stimulus\all_stim\occlusion\partialviewing\fewlarge\high\fewlarge_partialViewing_high_banana7.png,mask_img/000000012567.png,experiment,u,u,811.8102685000049
V3,20,23,Male,Right,287,Block 2,0.7306744999950752,0.025,false,bus,building,occlusion,control,mask,partial viewing,many small,Stimulus\all_stim\occlusion\partialviewing\manysmall\control\manysmall_partialViewing_control_bus10.png,mask_img/000000036482.png,experiment,o,i,813.6504107000073
V3,20,23,Male,Right,288,Block 2,0.6291811999981292,0.1,true,person,person,occlusion,low,mask,partial viewing,few large,Stimulus\all_stim\occlusion\partialviewing\fewlarge\low\fewlarge_partialViewing_low_person4.png,mask_img/000000029730.png,experiment,w,w,824.4125942999963
V3,20,23,Male,Right,289,Block 3,0.9716805000207387,0.05,true,cat,cat,occlusion,control,mask,partial viewing,many small,Stimulus\all_stim\occlusion\partialviewing\manysmall\control\manysmall_partialViewing_control_cat4.png,mask_img/000000038479.png,experiment,e,e,826.2343857999949
V3,20,23,Male,Right,290,Block 3,0.5364345000125468,0.05,true,cat,cat,occlusion,control,mask,partial viewing,few large,Stimulus\all_stim\occlusion\partialviewing\fewlarge\control\fewlarge_partialViewing_control_cat8.png,mask_img/000000007393.png,experiment,e,e,827.6974781000172
V3,20,23,Male,Right,291,Block 3,0.5860529000055976,0.025,true,person,person,occlusion,control,mask,partial viewing,few large,Stimulus\all_stim\occlusion\partialviewing\fewlarge\control\fewlarge_partialViewing_control_person6.png,mask_img/000000009469.png,experiment,w,w,829.3482585000165
V3,20,23,Male,Right,292,Block 3,0.6504321999964304,0.1,false,bus,building,occlusion,control,mask,partial viewing,few large,Stimulus\all_stim\occlusion\partialviewing\fewlarge\control\fewlarge_partialViewing_control_bus9.png,mask_img/000000006263.png,experiment,o,i,830.8655560000043
V3,20,23,Male,Right,293,Block 3,1.5833382999990135,0.025,true,bus,bus,occlusion,high,mask,partial viewing,many small,Stimulus\all_stim\occlusion\partialviewing\manysmall\high\manysmall_partialViewing_high_bus10.png,mask_img/000000046805.png,experiment,i,i,833.234495200013
V3,20,23,Male,Right,294,Block 3,1.0871620000107214,0.1,true,cat,cat,occlusion,control,mask,partial viewing,many small,Stimulus\all_stim\occlusion\partialviewing\manysmall\control\manysmall_partialViewing_control_cat2.png,mask_img/000000038375.png,experiment,e,e,835.4905501000176
V3,20,23,Male,Right,295,Block 3,0.8213528999767732,0.025,true,tree,tree,occlusion,high,mask,partial viewing,few large,Stimulus\all_stim\occlusion\partialviewing\fewlarge\high\fewlarge_partialViewing_high_tree9.png,mask_img/000000022440.png,experiment,r,r,837.0342684000207
V3,20,23,Male,Right,296,Block 3,1.0611335999856237,0.1,true,building,building,occlusion,control,mask,partial viewing,many small,Stimulus\all_stim\occlusion\partialviewing\manysmall\control\manysmall_partialViewing_control_building7.png,mask_img/000000036029.png,experiment,o,o,839.2583313000214
V3,20,23,Male,Right,297,Block 3,0.8290528000216,0.025,true,person,person,occlusion,low,mask,partial viewing,many small,Stimulus\all_stim\occlusion\partialviewing\manysmall\low\manysmall_partialViewing_low_person5.png,mask_img/000000062193.png,experiment,w,w,840.9704669000057
V3,20,23,Male,Right,298,Block 3,0.83396139999968,0.025,true,banana,banana,occlusion,low,mask,partial viewing,many small,Stimulus\all_stim\occlusion\partialviewing\manysmall\low\manysmall_partialViewing_low_banana5.png,mask_img/000000055388.png,experiment,u,u,842.722449199995
V3,20,23,Male,Right,299,Block 3,1.1763529000163544,0.05,true,cat,cat,occlusion,control,mask,partial viewing,few large,Stimulus\all_stim\occlusion\partialviewing\fewlarge\control\fewlarge_partialViewing_control_cat10.png,mask_img/000000006481.png,experiment,e,e,844.9546237000031
V3,20,23,Male,Right,300,Block 3,0.9215433000063058,0.025,true,person,person,occlusion,high,mask,partial viewing,few large,Stimulus\all_stim\occlusion\partialviewing\fewlarge\high\fewlarge_partialViewing_high_person4.png,mask_img/000000020202.png,experiment,w,w,847.0824344000139
V3,20,23,Male,Right,301,Block 3,0.8309341999993194,0.025,true,cat,cat,occlusion,control,mask,partial viewing,many small,Stimulus\all_stim\occlusion\partialviewing\manysmall\control\manysmall_partialViewing_control_cat2.png,mask_img/000000038375.png,experiment,e,e,849.0103105000162
V3,20,23,Male,Right,302,Block 3,0.5555303999863099,0.1,true,banana,banana,occlusion,low,mask,partial viewing,few large,Stimulus\all_stim\occlusion\partialviewing\fewlarge\low\fewlarge_partialViewing_low_banana3.png,mask_img/000000023004.png,experiment,u,u,850.7095915999962
V3,20,23,Male,Right,303,Block 3,1.0722830000158865,0.1,true,tree,tree,occlusion,control,mask,partial viewing,few large,Stimulus\all_stim\occlusion\partialviewing\fewlarge\control\fewlarge_partialViewing_control_tree8.png,mask_img/000000011544.png,experiment,r,r,852.6663915000099
V3,20,23,Male,Right,304,Block 3,1.127844600006938,0.1,true,bus,bus,occlusion,control,mask,partial viewing,many small,Stimulus\all_stim\occlusion\partialviewing\manysmall\control\manysmall_partialViewing_control_bus3.png,mask_img/000000036765.png,experiment,i,i,854.6185855999938
V3,20,23,Male,Right,305,Block 3,1.1197597999998834,0.025,false,cat,person,occlusion,low,mask,partial viewing,many small,Stimulus\all_stim\occlusion\partialviewing\manysmall\low\manysmall_partialViewing_low_cat1.png,mask_img/000000059036.png,experiment,w,e,856.6424207999953
V3,20,23,Male,Right,306,Block 3,1.1094135000021197,0.1,true,bus,bus,occlusion,high,mask,partial viewing,few large,Stimulus\all_stim\occlusion\partialviewing\fewlarge\high\fewlarge_partialViewing_high_bus8.png,mask_img/000000016715.png,experiment,i,i,858.490936200018
V3,20,23,Male,Right,307,Block 3,0.7384963000076823,0.025,true,bus,bus,occlusion,low,mask,partial viewing,many small,Stimulus\all_stim\occlusion\partialviewing\manysmall\low\manysmall_partialViewing_low_bus8.png,mask_img/000000058873.png,experiment,i,i,860.0025942000211
V3,20,23,Male,Right,308,Block 3,0.8027355000085663,0.1,true,bus,bus,occlusion,high,mask,partial viewing,few large,Stimulus\all_stim\occlusion\partialviewing\fewlarge\high\fewlarge_partialViewing_high_bus7.png,mask_img/000000016238.png,experiment,i,i,861.6989966999972
V3,20,23,Male,Right,309,Block 3,0.8965950999991037,0.05,true,tree,tree,occlusion,high,mask,partial viewing,few large,Stimulus\all_stim\occlusion\partialviewing\fewlarge\high\fewlarge_partialViewing_high_tree4.png,mask_img/000000021981.png,experiment,r,r,863.626789300004
V3,20,23,Male,Right,310,Block 3,0.6088376000116114,0.05,true,banana,banana,occlusion,low,mask,partial viewing,few large,Stimulus\all_stim\occlusion\partialviewing\fewlarge\low\fewlarge_partialViewing_low_banana5.png,mask_img/000000023100.png,experiment,u,u,865.032592500007
V3,20,23,Male,Right,311,Block 3,0.6287076000007801,0.025,true,bird,bird,occlusion,low,mask,partial viewing,few large,Stimulus\all_stim\occlusion\partialviewing\fewlarge\low\fewlarge_partialViewing_low_bird9.png,mask_img/000000024530.png,experiment,p,p,866.7501784000196
V3,20,23,Male,Right,312,Block 3,0.5576018999854568,0.025,true,bird,bird,occlusion,low,mask,partial viewing,few large,Stimulus\all_stim\occlusion\partialviewing\fewlarge\low\fewlarge_partialViewing_low_bird8.png,mask_img/000000024404.png,experiment,p,p,868.4341370000038
V3,20,23,Male,Right,313,Block 3,0.9687559000158217,0.05,true,bus,bus,occlusion,low,mask,partial viewing,few large,Stimulus\all_stim\occlusion\partialviewing\fewlarge\low\fewlarge_partialViewing_low_bus5.png,mask_img/000000026497.png,experiment,i,i,870.1223014999996
V3,20,23,Male,Right,314,Block 3,0.4610971000220161,0.05,true,bus,bus,occlusion,control,mask,partial viewing,few large,Stimulus\all_stim\occlusion\partialviewing\fewlarge\control\fewlarge_partialViewing_control_bus10.png,mask_img/000000005282.png,experiment,i,i,871.5858322000131
V3,20,23,Male,Right,315,Block 3,0.47841380001045763,0.05,true,bus,bus,occlusion,high,mask,partial viewing,few large,Stimulus\all_stim\occlusion\partialviewing\fewlarge\high\fewlarge_partialViewing_high_bus7.png,mask_img/000000016238.png,experiment,i,i,872.8545833000098
V3,20,23,Male,Right,316,Block 3,1.4247579999791924,0.05,true,person,person,occlusion,high,mask,partial viewing,few large,Stimulus\all_stim\occlusion\partialviewing\fewlarge\high\fewlarge_partialViewing_high_person9.png,mask_img/000000021003.png,experiment,w,w,875.3946499000012
V3,20,23,Male,Right,317,Block 3,0.8128572000132408,0.05,true,tree,tree,occlusion,low,mask,partial viewing,many small,Stimulus\all_stim\occlusion\partialviewing\manysmall\low\manysmall_partialViewing_low_tree4.png,mask_img/000000063337.png,experiment,r,r,877.3145548000175
V3,20,23,Male,Right,318,Block 3,0.678876299993135,0.025,true,firehydrant,firehydrant,occlusion,low,mask,partial viewing,few large,Stimulus\all_stim\occlusion\partialviewing\fewlarge\low\fewlarge_partialViewing_low_firehydrant9.png,mask_img/000000029056.png,experiment,q,q,878.7562165000127
V3,20,23,Male,Right,319,Block 3,1.0428740000061225,0.025,false,building,bus,occlusion,control,mask,partial viewing,few large,Stimulus\all_stim\occlusion\partialviewing\fewlarge\control\fewlarge_partialViewing_control_building3.png,mask_img/000000003694.png,experiment,i,o,880.8913755000103
V3,20,23,Male,Right,320,Block 3,0.6852095000213012,0.025,true,bus,bus,occlusion,low,mask,partial viewing,few large,Stimulus\all_stim\occlusion\partialviewing\fewlarge\low\fewlarge_partialViewing_low_bus7.png,mask_img/000000026720.png,experiment,i,i,882.5946128000214
V3,20,23,Male,Right,321,Block 3,0.47430179998627864,0.05,true,building,building,occlusion,control,mask,partial viewing,few large,Stimulus\all_stim\occlusion\partialviewing\fewlarge\control\fewlarge_partialViewing_control_building3.png,mask_img/000000003694.png,experiment,o,o,884.1085043000057
V3,20,23,Male,Right,322,Block 3,0.9822377000236884,0.05,true,cat,cat,occlusion,control,mask,partial viewing,many small,Stimulus\all_stim\occlusion\partialviewing\manysmall\control\manysmall_partialViewing_control_cat9.png,mask_img/000000038862.png,experiment,e,e,885.9625285000075
V3,20,23,Male,Right,323,Block 3,1.1826163999794517,0.025,true,building,building,occlusion,high,mask,partial viewing,few large,Stimulus\all_stim\occlusion\partialviewing\fewlarge\high\fewlarge_partialViewing_high_building6.png,mask_img/000000014774.png,experiment,o,o,888.0106502000126
V3,20,23,Male,Right,324,Block 3,0.5753629999817349,0.05,true,building,building,occlusion,low,mask,partial viewing,few large,Stimulus\all_stim\occlusion\partialviewing\fewlarge\low\fewlarge_partialViewing_low_building1.png,mask_img/000000024552.png,experiment,o,o,889.628400000016
V3,20,23,Male,Right,325,Block 3,0.6467463999870233,0.025,true,bird,bird,occlusion,control,mask,partial viewing,many small,Stimulus\all_stim\occlusion\partialviewing\manysmall\control\manysmall_partialViewing_control_bird4.png,mask_img/000000034691.png,experiment,p,p,891.1307279000175
V3,20,23,Male,Right,326,Block 3,0.8468743999837898,0.1,true,cat,cat,occlusion,control,mask,partial viewing,many small,Stimulus\all_stim\occlusion\partialviewing\manysmall\control\manysmall_partialViewing_control_cat9.png,mask_img/000000038862.png,experiment,e,e,892.9705368000141
V3,20,23,Male,Right,327,Block 3,0.8194470999878831,0.1,true,bus,bus,occlusion,control,mask,partial viewing,few large,Stimulus\all_stim\occlusion\partialviewing\fewlarge\control\fewlarge_partialViewing_control_bus2.png,mask_img/000000005359.png,experiment,i,i,894.6184371999989
V3,20,23,Male,Right,328,Block 3,0.7016457000281662,0.025,true,building,building,occlusion,high,mask,partial viewing,many small,Stimulus\all_stim\occlusion\partialviewing\manysmall\high\manysmall_partialViewing_high_building1.png,mask_img/000000044950.png,experiment,o,o,896.1131483000063
V3,20,23,Male,Right,329,Block 3,0.9887872000108473,0.05,true,tree,tree,occlusion,control,mask,partial viewing,few large,Stimulus\all_stim\occlusion\partialviewing\fewlarge\control\fewlarge_partialViewing_control_tree8.png,mask_img/000000011544.png,experiment,r,r,898.0506171000015
V3,20,23,Male,Right,330,Block 3,1.148697299999185,0.05,true,banana,banana,occlusion,high,mask,partial viewing,many small,Stimulus\all_stim\occlusion\partialviewing\manysmall\high\manysmall_partialViewing_high_banana10.png,mask_img/000000042196.png,experiment,u,u,900.1628206000023
V3,20,23,Male,Right,331,Block 3,0.9649941999814473,0.05,false,bus,building,occlusion,control,mask,partial viewing,few large,Stimulus\all_stim\occlusion\partialviewing\fewlarge\control\fewlarge_partialViewing_control_bus4.png,mask_img/000000005574.png,experiment,o,i,902.0106810000143
V3,20,23,Male,Right,332,Block 3,1.0208928999782074,0.025,true,cat,cat,occlusion,control,mask,partial viewing,many small,Stimulus\all_stim\occlusion\partialviewing\manysmall\control\manysmall_partialViewing_control_cat10.png,mask_img/000000038178.png,experiment,e,e,903.9230791000009
V3,20,23,Male,Right,333,Block 3,0.5537858000025153,0.05,true,banana,banana,occlusion,control,mask,partial viewing,many small,Stimulus\all_stim\occlusion\partialviewing\manysmall\control\manysmall_partialViewing_control_banana10.png,mask_img/000000033074.png,experiment,u,u,905.3857652000152
V3,20,23,Male,Right,334,Block 3,1.009365899983095,0.05,true,tree,tree,occlusion,high,mask,partial viewing,many small,Stimulus\all_stim\occlusion\partialviewing\manysmall\high\manysmall_partialViewing_high_tree7.png,mask_img/000000053635.png,experiment,r,r,907.1706290000002
V3,20,23,Male,Right,335,Block 3,0.8121135999972466,0.025,true,person,person,occlusion,low,mask,partial viewing,few large,Stimulus\all_stim\occlusion\partialviewing\fewlarge\low\fewlarge_partialViewing_low_person9.png,mask_img/000000031017.png,experiment,w,w,909.0984378000139
V3,20,23,Male,Right,336,Block 3,0.8974649999872781,0.05,false,bird,tree,occlusion,high,mask,partial viewing,many small,Stimulus\all_stim\occlusion\partialviewing\manysmall\high\manysmall_partialViewing_high_bird5.png,mask_img/000000044437.png,experiment,r,p,910.9225052999973
V3,20,23,Male,Right,337,Block 3,1.0498064999992494,0.025,true,bus,bus,occlusion,control,mask,partial viewing,many small,Stimulus\all_stim\occlusion\partialviewing\manysmall\control\manysmall_partialViewing_control_bus1.png,mask_img/000000036255.png,experiment,i,i,913.0828920000058
V3,20,23,Male,Right,338,Block 3,0.8756973999843467,0.1,true,person,person,occlusion,high,mask,partial viewing,many small,Stimulus\all_stim\occlusion\partialviewing\manysmall\high\manysmall_partialViewing_high_person4.png,mask_img/000000052087.png,experiment,w,w,914.69874360002
V3,20,23,Male,Right,339,Block 3,0.7331691999861505,0.1,true,person,person,occlusion,control,mask,partial viewing,many small,Stimulus\all_stim\occlusion\partialviewing\manysmall\control\manysmall_partialViewing_control_person9.png,mask_img/000000040771.png,experiment,w,w,916.1068781999929
V3,20,23,Male,Right,340,Block 3,0.5420052999979816,0.1,true,person,person,occlusion,low,mask,partial viewing,many small,Stimulus\all_stim\occlusion\partialviewing\manysmall\low\manysmall_partialViewing_low_person10.png,mask_img/000000061838.png,experiment,w,w,917.7251307000115
V3,20,23,Male,Right,341,Block 3,0.5708701000257861,0.1,true,firehydrant,firehydrant,occlusion,control,mask,partial viewing,few large,Stimulus\all_stim\occlusion\partialviewing\fewlarge\control\fewlarge_partialViewing_control_firehydrant10.png,mask_img/000000007758.png,experiment,q,q,919.3426464000077
V3,20,23,Male,Right,342,Block 3,1.0233536000014283,0.1,true,bus,bus,occlusion,low,mask,partial viewing,few large,Stimulus\all_stim\occlusion\partialviewing\fewlarge\low\fewlarge_partialViewing_low_bus5.png,mask_img/000000026497.png,experiment,i,i,921.4030196999956
V3,20,23,Male,Right,343,Block 3,0.5827832000213675,0.1,true,banana,banana,occlusion,low,mask,partial viewing,few large,Stimulus\all_stim\occlusion\partialviewing\fewlarge\low\fewlarge_partialViewing_low_banana1.png,mask_img/000000022545.png,experiment,u,u,922.6778898000193
V3,20,23,Male,Right,344,Block 3,1.748329800000647,0.025,true,cat,cat,occlusion,low,mask,partial viewing,many small,Stimulus\all_stim\occlusion\partialviewing\manysmall\low\manysmall_partialViewing_low_cat10.png,mask_img/000000059046.png,experiment,e,e,925.1867951000168
V3,20,23,Male,Right,345,Block 3,0.8015749000187498,0.1,true,bus,bus,occlusion,low,mask,partial viewing,few large,Stimulus\all_stim\occlusion\partialviewing\fewlarge\low\fewlarge_partialViewing_low_bus9.png,mask_img/000000027005.png,experiment,i,i,927.1955050000106
