Version,pt_num,Age,Gender,Handedness,trial_nbr,block_number,rt,soa,acc,category,choiced_category,manipulation,difficulty,mask,type_occl,size_occl,filename,mask_filename,task,pressed_key,correct_key,Experiment Duration
V3,5,26,Male,Right,1,Training,3.943610899965279,0.05,true,building,building,occlusion,low,mask,partial viewing,many small,Training_Stimulus\manysmall_partialViewing_low_building24.png,mask_img/000000006489.png,training,r,r,454.8672811000142
V3,5,26,Male,Right,2,Training,2.6468279999680817,0.05,false,banana,bus,occlusion,high,mask,partial viewing,many small,Training_Stimulus\manysmall_partialViewing_high_banana454.png,mask_img/000000005359.png,training,u,q,458.71128379995935
V3,5,26,Male,Right,3,Training,2.1586349999997765,0.05,true,tree,tree,occlusion,high,mask,partial viewing,few large,Training_Stimulus\fewlarge_partialViewing_high_tree9.png,mask_img/000000002197.png,training,i,i,462.2110643000342
V3,5,26,Male,Right,4,Training,4.107782000093721,0.025,false,firehydrant,person,occlusion,high,mask,partial viewing,many small,Training_Stimulus\manysmall_partialViewing_high_firehydrant90.png,mask_img/000000006146.png,training,w,p,467.41354780003894
V3,5,26,Male,Right,5,Training,1.7540520000038669,0.05,true,person,person,occlusion,control,mask,partial viewing,many small,Training_Stimulus\manysmall_partialViewing_control_person189.png,mask_img/000000005142.png,training,w,w,470.56888519995846
V3,5,26,Male,Right,6,Training,1.981422199984081,0.05,true,cat,cat,occlusion,low,mask,partial viewing,many small,Training_Stimulus\manysmall_partialViewing_low_cat432.png,mask_img/000000006842.png,training,o,o,473.77231110003777
V3,5,26,Male,Right,7,Training,1.7748335999203846,0.025,true,banana,banana,occlusion,control,mask,partial viewing,many small,Training_Stimulus\manysmall_partialViewing_control_banana454.png,mask_img/000000004239.png,training,q,q,476.89806040003896
V3,5,26,Male,Right,8,Training,3.0262469999725,0.05,false,person,cat,occlusion,low,mask,partial viewing,many small,Training_Stimulus\manysmall_partialViewing_low_person189.png,mask_img/000000007179.png,training,o,w,481.30345040000975
V3,5,26,Male,Right,9,Training,2.445798199973069,0.1,true,bus,bus,occlusion,high,mask,partial viewing,few large,Training_Stimulus\fewlarge_partialViewing_high_bus180.png,mask_img/000000001053.png,training,u,u,484.9908805999439
V3,5,26,Male,Right,10,Training,1.9114896999672055,0.05,true,banana,banana,occlusion,control,mask,partial viewing,few large,Training_Stimulus\fewlarge_partialViewing_control_banana454.png,mask_img/000000000042.png,training,q,q,488.06889889994636
V3,5,26,Male,Right,11,Training,1.566543500055559,0.1,true,cat,cat,occlusion,high,mask,partial viewing,few large,Training_Stimulus\fewlarge_partialViewing_high_cat432.png,mask_img/000000001647.png,training,o,o,490.85031250002794
V3,5,26,Male,Right,12,Training,2.0279357000254095,0.1,true,tree,tree,occlusion,low,mask,partial viewing,many small,Training_Stimulus\manysmall_partialViewing_low_tree9.png,mask_img/000000007325.png,training,i,i,494.1487609000178
V3,5,26,Male,Right,13,Training,1.7344289000611752,0.025,false,cat,person,occlusion,high,mask,partial viewing,many small,Training_Stimulus\manysmall_partialViewing_high_cat432.png,mask_img/000000005862.png,training,w,o,497.42960020003375
V3,5,26,Male,Right,14,Training,1.857227599946782,0.05,true,bus,bus,occlusion,high,mask,partial viewing,few large,Training_Stimulus\fewlarge_partialViewing_high_bus180.png,mask_img/000000001053.png,training,u,u,500.5280876000179
V3,5,26,Male,Right,15,Training,1.3136898000957444,0.05,true,firehydrant,firehydrant,occlusion,control,mask,partial viewing,many small,Training_Stimulus\manysmall_partialViewing_control_firehydrant90.png,mask_img/000000005131.png,training,p,p,503.1060855999822
V3,5,26,Male,Right,16,Training,1.9757445000577718,0.1,true,bus,bus,occlusion,control,mask,partial viewing,many small,Training_Stimulus\manysmall_partialViewing_control_bus180.png,mask_img/000000004936.png,training,u,u,506.3718086000299
V3,5,26,Male,Right,17,Training,1.705440300051123,0.1,true,cat,cat,occlusion,low,mask,partial viewing,many small,Training_Stimulus\manysmall_partialViewing_low_cat432.png,mask_img/000000006842.png,training,o,o,509.5748197999783
V3,5,26,Male,Right,18,Training,1.4941063000587747,0.1,true,bus,bus,occlusion,high,mask,partial viewing,many small,Training_Stimulus\manysmall_partialViewing_high_bus180.png,mask_img/000000005615.png,training,u,u,512.2486630999483
V3,5,26,Male,Right,19,Training,1.9135354000609368,0.1,true,tree,tree,occlusion,high,mask,partial viewing,many small,Training_Stimulus\manysmall_partialViewing_high_tree9.png,mask_img/000000006263.png,training,i,i,515.32488249999
V3,5,26,Male,Right,20,Training,1.637384600006044,0.025,true,tree,tree,occlusion,control,mask,partial viewing,few large,Training_Stimulus\fewlarge_partialViewing_control_tree9.png,mask_img/000000000626.png,training,i,i,518.2480907000136
V3,5,26,Male,Right,21,Training,2.00764079997316,0.025,false,person,tree,occlusion,low,mask,partial viewing,many small,Training_Stimulus\manysmall_partialViewing_low_person189.png,mask_img/000000007179.png,training,i,w,521.5292725999607
V3,5,26,Male,Right,22,Training,1.7282740999944508,0.1,true,cat,cat,occlusion,control,mask,partial viewing,few large,Training_Stimulus\fewlarge_partialViewing_control_cat432.png,mask_img/000000000438.png,training,o,o,524.6547008999623
V3,5,26,Male,Right,23,Training,1.2246265000430867,0.05,true,banana,banana,occlusion,low,mask,partial viewing,many small,Training_Stimulus\manysmall_partialViewing_low_banana454.png,mask_img/000000006437.png,training,q,q,527.0918056999799
V3,5,26,Male,Right,24,Training,1.2221040000440553,0.1,true,person,person,occlusion,control,mask,partial viewing,few large,Training_Stimulus\fewlarge_partialViewing_control_person189.png,mask_img/000000000595.png,training,w,w,529.482513600029
V3,5,26,Male,Right,25,Training,1.2606659999582916,0.05,true,banana,banana,occlusion,high,mask,partial viewing,few large,Training_Stimulus\fewlarge_partialViewing_high_banana454.png,mask_img/000000000690.png,training,q,q,532.2976434000302
V3,5,26,Male,Right,26,Training,1.7635642000241205,0.05,true,cat,cat,occlusion,low,mask,partial viewing,few large,Training_Stimulus\fewlarge_partialViewing_low_cat432.png,mask_img/000000003084.png,training,o,o,535.5002708999673
V3,5,26,Male,Right,27,Training,3.5878060000250116,0.025,false,banana,building,occlusion,high,mask,partial viewing,many small,Training_Stimulus\manysmall_partialViewing_high_banana454.png,mask_img/000000005359.png,training,r,q,540.4717653000262
V3,5,26,Male,Right,28,Training,1.1400342000415549,0.025,true,banana,banana,occlusion,low,mask,partial viewing,many small,Training_Stimulus\manysmall_partialViewing_low_banana454.png,mask_img/000000006437.png,training,q,q,543.1587497999426
V3,5,26,Male,Right,29,Training,2.0410304999677464,0.025,true,bus,bus,occlusion,low,mask,partial viewing,many small,Training_Stimulus\manysmall_partialViewing_low_bus180.png,mask_img/000000006709.png,training,u,u,546.7698748999974
V3,5,26,Male,Right,30,Training,2.2025337000377476,0.1,false,bird,tree,occlusion,high,mask,partial viewing,many small,Training_Stimulus\manysmall_partialViewing_high_bird4.png,mask_img/000000005418.png,training,i,e,550.2837037999416
V3,5,26,Male,Right,31,Training,1.1889724000357091,0.05,false,bird,cat,occlusion,low,mask,partial viewing,many small,Training_Stimulus\manysmall_partialViewing_low_bird4.png,mask_img/000000006481.png,training,o,e,552.7537916000001
V3,5,26,Male,Right,32,Training,1.0075959999812767,0.05,true,firehydrant,firehydrant,occlusion,high,mask,partial viewing,many small,Training_Stimulus\manysmall_partialViewing_high_firehydrant90.png,mask_img/000000006146.png,training,p,p,554.9882554999785
V3,5,26,Male,Right,33,Training,1.7046529999934137,0.05,true,person,person,occlusion,control,mask,partial viewing,few large,Training_Stimulus\fewlarge_partialViewing_control_person189.png,mask_img/000000000595.png,training,w,w,558.2693352999631
V3,5,26,Male,Right,34,Training,2.2231180999660864,0.1,true,banana,banana,occlusion,high,mask,partial viewing,few large,Training_Stimulus\fewlarge_partialViewing_high_banana454.png,mask_img/000000000690.png,training,q,q,562.0820560000138
V3,5,26,Male,Right,35,Training,1.6283874000655487,0.05,true,tree,tree,occlusion,low,mask,partial viewing,many small,Training_Stimulus\manysmall_partialViewing_low_tree9.png,mask_img/000000007325.png,training,i,i,564.9066178000066
V3,5,26,Male,Right,36,Training,2.1873270000796765,0.05,true,cat,cat,occlusion,high,mask,partial viewing,few large,Training_Stimulus\fewlarge_partialViewing_high_cat432.png,mask_img/000000001647.png,training,o,o,568.2547625999432
V3,5,26,Male,Right,37,Training,1.63251330005005,0.05,true,person,person,occlusion,low,mask,partial viewing,few large,Training_Stimulus\fewlarge_partialViewing_low_person189.png,mask_img/000000003483.png,training,w,w,571.4109526999528
V3,5,26,Male,Right,38,Training,3.031033599982038,0.025,true,building,building,occlusion,low,mask,partial viewing,few large,Training_Stimulus\fewlarge_partialViewing_low_building24.png,mask_img/000000002822.png,training,r,r,575.7233198999893
V3,5,26,Male,Right,39,Training,1.5406049999874085,0.05,true,building,building,occlusion,control,mask,partial viewing,many small,Training_Stimulus\manysmall_partialViewing_control_building24.png,mask_img/000000004739.png,training,r,r,578.8173276999732
V3,5,26,Male,Right,1,Block 1,1.9569423999637365,0.1,true,tree,tree,occlusion,control,mask,partial viewing,few large,Stimulus\all_stim\occlusion\partialviewing\fewlarge\control\fewlarge_partialViewing_control_tree1.png,mask_img/000000010281.png,experiment,i,i,606.9724397000391
V3,5,26,Male,Right,2,Block 1,1.6359928000019863,0.025,true,tree,tree,occlusion,control,mask,partial viewing,many small,Stimulus\all_stim\occlusion\partialviewing\manysmall\control\manysmall_partialViewing_control_tree3.png,mask_img/000000041014.png,experiment,i,i,609.7721828999929
V3,5,26,Male,Right,3,Block 1,2.4089563998859376,0.025,false,tree,cat,occlusion,low,mask,partial viewing,many small,Stimulus\all_stim\occlusion\partialviewing\manysmall\low\manysmall_partialViewing_low_tree2.png,mask_img/000000062875.png,experiment,o,i,612.9880521999439
V3,5,26,Male,Right,4,Block 1,2.0381124999839813,0.025,true,bird,bird,occlusion,control,mask,partial viewing,few large,Stimulus\all_stim\occlusion\partialviewing\fewlarge\control\fewlarge_partialViewing_control_bird2.png,mask_img/000000001647.png,experiment,e,e,616.1561692999676
V3,5,26,Male,Right,5,Block 1,1.5170661000302061,0.025,true,building,building,occlusion,control,mask,partial viewing,few large,Stimulus\all_stim\occlusion\partialviewing\fewlarge\control\fewlarge_partialViewing_control_building4.png,mask_img/000000004239.png,experiment,r,r,618.4681758999359
V3,5,26,Male,Right,6,Block 1,1.2235086999135092,0.1,true,firehydrant,firehydrant,occlusion,high,mask,partial viewing,few large,Stimulus\all_stim\occlusion\partialviewing\fewlarge\high\fewlarge_partialViewing_high_firehydrant10.png,mask_img/000000018441.png,experiment,p,p,620.3962375000119
V3,5,26,Male,Right,7,Block 1,1.0724873999133706,0.05,true,banana,banana,occlusion,control,mask,partial viewing,few large,Stimulus\all_stim\occlusion\partialviewing\fewlarge\control\fewlarge_partialViewing_control_banana1.png,mask_img/000000000042.png,experiment,q,q,622.2681981000351
V3,5,26,Male,Right,8,Block 1,1.454041099990718,0.025,true,bus,bus,occlusion,high,mask,partial viewing,few large,Stimulus\all_stim\occlusion\partialviewing\fewlarge\high\fewlarge_partialViewing_high_bus2.png,mask_img/000000015862.png,experiment,u,u,624.452283999999
V3,5,26,Male,Right,9,Block 1,1.1533262999728322,0.025,true,banana,banana,occlusion,low,mask,partial viewing,many small,Stimulus\all_stim\occlusion\partialviewing\manysmall\low\manysmall_partialViewing_low_banana8.png,mask_img/000000055630.png,experiment,q,q,626.7563851999585
V3,5,26,Male,Right,10,Block 1,3.254712500027381,0.1,true,bus,bus,occlusion,low,mask,partial viewing,few large,Stimulus\all_stim\occlusion\partialviewing\fewlarge\low\fewlarge_partialViewing_low_bus8.png,mask_img/000000026782.png,experiment,u,u,630.7403621999547
V3,5,26,Male,Right,11,Block 1,1.5055589999537915,0.05,true,building,building,occlusion,low,mask,partial viewing,few large,Stimulus\all_stim\occlusion\partialviewing\fewlarge\low\fewlarge_partialViewing_low_building10.png,mask_img/000000024591.png,experiment,r,r,633.3405131000327
V3,5,26,Male,Right,12,Block 1,1.4001934000989422,0.025,true,building,building,occlusion,high,mask,partial viewing,few large,Stimulus\all_stim\occlusion\partialviewing\fewlarge\high\fewlarge_partialViewing_high_building6.png,mask_img/000000014774.png,experiment,r,r,635.7803924999898
V3,5,26,Male,Right,13,Block 1,1.5446789000416175,0.1,true,bus,bus,occlusion,low,mask,partial viewing,few large,Stimulus\all_stim\occlusion\partialviewing\fewlarge\low\fewlarge_partialViewing_low_bus1.png,mask_img/000000025820.png,experiment,u,u,638.2843154999427
V3,5,26,Male,Right,14,Block 1,1.421217600000091,0.025,true,building,building,occlusion,control,mask,partial viewing,many small,Stimulus\all_stim\occlusion\partialviewing\manysmall\control\manysmall_partialViewing_control_building3.png,mask_img/000000035979.png,experiment,r,r,640.7801932999864
V3,5,26,Male,Right,15,Block 1,1.5785144999390468,0.1,true,bus,bus,occlusion,control,mask,partial viewing,few large,Stimulus\all_stim\occlusion\partialviewing\fewlarge\control\fewlarge_partialViewing_control_bus3.png,mask_img/000000005418.png,experiment,u,u,643.4764469999354
V3,5,26,Male,Right,16,Block 1,3.407490500016138,0.025,false,person,bus,occlusion,high,mask,partial viewing,many small,Stimulus\all_stim\occlusion\partialviewing\manysmall\high\manysmall_partialViewing_high_person7.png,mask_img/000000052562.png,experiment,u,w,647.8203130000038
V3,5,26,Male,Right,17,Block 1,1.7490724999224767,0.1,true,tree,tree,occlusion,high,mask,partial viewing,few large,Stimulus\all_stim\occlusion\partialviewing\fewlarge\high\fewlarge_partialViewing_high_tree7.png,mask_img/000000022256.png,experiment,i,i,650.2841336999554
V3,5,26,Male,Right,18,Block 1,4.8383130999282,0.1,true,bird,bird,occlusion,high,mask,partial viewing,many small,Stimulus\all_stim\occlusion\partialviewing\manysmall\high\manysmall_partialViewing_high_bird2.png,mask_img/000000044117.png,experiment,e,e,656.3004706000211
V3,5,26,Male,Right,19,Block 1,0.9468974000774324,0.025,true,banana,banana,occlusion,control,mask,partial viewing,few large,Stimulus\all_stim\occlusion\partialviewing\fewlarge\control\fewlarge_partialViewing_control_banana2.png,mask_img/000000000312.png,experiment,q,q,658.100935800001
V3,5,26,Male,Right,20,Block 1,1.3552883999655023,0.05,true,building,building,occlusion,control,mask,partial viewing,many small,Stimulus\all_stim\occlusion\partialviewing\manysmall\control\manysmall_partialViewing_control_building5.png,mask_img/000000036004.png,experiment,r,r,660.3806424000068
V3,5,26,Male,Right,21,Block 1,1.069592299987562,0.025,true,building,building,occlusion,high,mask,partial viewing,few large,Stimulus\all_stim\occlusion\partialviewing\fewlarge\high\fewlarge_partialViewing_high_building9.png,mask_img/000000015619.png,experiment,r,r,662.4843405999709
V3,5,26,Male,Right,22,Block 1,0.9699517000699416,0.025,true,firehydrant,firehydrant,occlusion,control,mask,partial viewing,few large,Stimulus\all_stim\occlusion\partialviewing\fewlarge\control\fewlarge_partialViewing_control_firehydrant8.png,mask_img/000000008193.png,experiment,p,p,664.5881949999603
V3,5,26,Male,Right,23,Block 1,1.6123543999856338,0.05,false,cat,tree,occlusion,high,mask,partial viewing,many small,Stimulus\all_stim\occlusion\partialviewing\manysmall\high\manysmall_partialViewing_high_cat3.png,mask_img/000000049254.png,experiment,i,o,666.9722629999742
V3,5,26,Male,Right,24,Block 1,1.2319589001126587,0.025,true,cat,cat,occlusion,high,mask,partial viewing,few large,Stimulus\all_stim\occlusion\partialviewing\fewlarge\high\fewlarge_partialViewing_high_cat3.png,mask_img/000000017356.png,experiment,o,o,668.9643377000466
V3,5,26,Male,Right,25,Block 1,1.3965488000540063,0.05,true,person,person,occlusion,control,mask,partial viewing,few large,Stimulus\all_stim\occlusion\partialviewing\fewlarge\control\fewlarge_partialViewing_control_person2.png,mask_img/000000008787.png,experiment,w,w,671.5322923000203
V3,5,26,Male,Right,26,Block 1,1.4992894000606611,0.05,true,tree,tree,occlusion,high,mask,partial viewing,many small,Stimulus\all_stim\occlusion\partialviewing\manysmall\high\manysmall_partialViewing_high_tree9.png,mask_img/000000054336.png,experiment,i,i,673.8121860999381
V3,5,26,Male,Right,27,Block 1,1.0374129000119865,0.1,true,firehydrant,firehydrant,occlusion,low,mask,partial viewing,many small,Stimulus\all_stim\occlusion\partialviewing\manysmall\low\manysmall_partialViewing_low_firehydrant4.png,mask_img/000000060610.png,experiment,p,p,675.8923727000365
V3,5,26,Male,Right,28,Block 1,2.302313099964522,0.1,true,building,building,occlusion,low,mask,partial viewing,few large,Stimulus\all_stim\occlusion\partialviewing\fewlarge\low\fewlarge_partialViewing_low_building6.png,mask_img/000000025143.png,experiment,r,r,679.3803298999555
V3,5,26,Male,Right,29,Block 1,1.5651162000140175,0.05,true,cat,cat,occlusion,low,mask,partial viewing,many small,Stimulus\all_stim\occlusion\partialviewing\manysmall\low\manysmall_partialViewing_low_cat6.png,mask_img/000000059918.png,experiment,o,o,682.0762690999545
V3,5,26,Male,Right,30,Block 1,0.9690746000269428,0.1,true,banana,banana,occlusion,control,mask,partial viewing,few large,Stimulus\all_stim\occlusion\partialviewing\fewlarge\control\fewlarge_partialViewing_control_banana10.png,mask_img/000000000109.png,experiment,q,q,683.8363278999459
V3,5,26,Male,Right,31,Block 1,1.2330379000632092,0.1,true,bus,bus,occlusion,high,mask,partial viewing,few large,Stimulus\all_stim\occlusion\partialviewing\fewlarge\high\fewlarge_partialViewing_high_bus4.png,mask_img/000000015927.png,experiment,u,u,685.9641775999917
V3,5,26,Male,Right,32,Block 1,1.8051540000597015,0.05,false,bus,tree,occlusion,control,mask,partial viewing,many small,Stimulus\all_stim\occlusion\partialviewing\manysmall\control\manysmall_partialViewing_control_bus7.png,mask_img/000000037339.png,experiment,i,u,688.7401837999932
V3,5,26,Male,Right,33,Block 1,1.2684469999512658,0.025,false,person,tree,occlusion,high,mask,partial viewing,few large,Stimulus\all_stim\occlusion\partialviewing\fewlarge\high\fewlarge_partialViewing_high_person10.png,mask_img/000000019927.png,experiment,i,w,691.0042634999845
V3,5,26,Male,Right,34,Block 1,1.1417126000160351,0.1,true,tree,tree,occlusion,low,mask,partial viewing,few large,Stimulus\all_stim\occlusion\partialviewing\fewlarge\low\fewlarge_partialViewing_low_tree4.png,mask_img/000000032364.png,experiment,i,i,692.8283876000205
V3,5,26,Male,Right,35,Block 1,1.5700576000381261,0.05,false,bird,tree,occlusion,high,mask,partial viewing,few large,Stimulus\all_stim\occlusion\partialviewing\fewlarge\high\fewlarge_partialViewing_high_bird9.png,mask_img/000000014175.png,experiment,i,e,695.268325699959
V3,5,26,Male,Right,36,Block 1,1.281639700056985,0.1,true,cat,cat,occlusion,control,mask,partial viewing,few large,Stimulus\all_stim\occlusion\partialviewing\fewlarge\control\fewlarge_partialViewing_control_cat8.png,mask_img/000000007393.png,experiment,o,o,697.452167600044
V3,5,26,Male,Right,37,Block 1,1.1299767000600696,0.025,true,building,building,occlusion,high,mask,partial viewing,few large,Stimulus\all_stim\occlusion\partialviewing\fewlarge\high\fewlarge_partialViewing_high_building4.png,mask_img/000000014592.png,experiment,r,r,699.3883851999417
V3,5,26,Male,Right,38,Block 1,1.3595083999680355,0.05,false,person,tree,occlusion,high,mask,partial viewing,few large,Stimulus\all_stim\occlusion\partialviewing\fewlarge\high\fewlarge_partialViewing_high_person3.png,mask_img/000000020147.png,experiment,i,w,701.6363993999548
V3,5,26,Male,Right,39,Block 1,1.2858696000184864,0.05,false,banana,tree,occlusion,high,mask,partial viewing,many small,Stimulus\all_stim\occlusion\partialviewing\manysmall\high\manysmall_partialViewing_high_banana6.png,mask_img/000000042704.png,experiment,i,q,703.9883332999889
V3,5,26,Male,Right,40,Block 1,1.2149101999821141,0.025,true,cat,cat,occlusion,low,mask,partial viewing,few large,Stimulus\all_stim\occlusion\partialviewing\fewlarge\low\fewlarge_partialViewing_low_cat6.png,mask_img/000000027764.png,experiment,o,o,705.9963408999611
V3,5,26,Male,Right,41,Block 1,1.2513490000274032,0.025,true,person,person,occlusion,low,mask,partial viewing,few large,Stimulus\all_stim\occlusion\partialviewing\fewlarge\low\fewlarge_partialViewing_low_person5.png,mask_img/000000029964.png,experiment,w,w,708.2050195999909
V3,5,26,Male,Right,42,Block 1,1.011031600064598,0.05,true,firehydrant,firehydrant,occlusion,control,mask,partial viewing,few large,Stimulus\all_stim\occlusion\partialviewing\fewlarge\control\fewlarge_partialViewing_control_firehydrant2.png,mask_img/000000007934.png,experiment,p,p,709.9242444999982
V3,5,26,Male,Right,43,Block 1,1.219447800074704,0.05,false,bird,tree,occlusion,low,mask,partial viewing,many small,Stimulus\all_stim\occlusion\partialviewing\manysmall\low\manysmall_partialViewing_low_bird9.png,mask_img/000000056641.png,experiment,i,e,712.1082233999623
V3,5,26,Male,Right,44,Block 1,0.9187734000151977,0.1,true,tree,tree,occlusion,low,mask,partial viewing,many small,Stimulus\all_stim\occlusion\partialviewing\manysmall\low\manysmall_partialViewing_low_tree10.png,mask_img/000000062716.png,experiment,i,i,713.7166897000279
V3,5,26,Male,Right,45,Block 1,0.8438717999961227,0.025,true,tree,tree,occlusion,high,mask,partial viewing,many small,Stimulus\all_stim\occlusion\partialviewing\manysmall\high\manysmall_partialViewing_high_tree5.png,mask_img/000000053410.png,experiment,i,i,715.4843773000175
V3,5,26,Male,Right,46,Block 1,0.784607799956575,0.025,true,tree,tree,occlusion,control,mask,partial viewing,few large,Stimulus\all_stim\occlusion\partialviewing\fewlarge\control\fewlarge_partialViewing_control_tree10.png,mask_img/000000010414.png,experiment,i,i,717.3002750000451
V3,5,26,Male,Right,47,Block 1,1.126293999957852,0.05,true,cat,cat,occlusion,control,mask,partial viewing,many small,Stimulus\all_stim\occlusion\partialviewing\manysmall\control\manysmall_partialViewing_control_cat3.png,mask_img/000000038381.png,experiment,o,o,719.2928812999744
V3,5,26,Male,Right,48,Block 1,0.8945747000398114,0.025,true,firehydrant,firehydrant,occlusion,control,mask,partial viewing,few large,Stimulus\all_stim\occlusion\partialviewing\fewlarge\control\fewlarge_partialViewing_control_firehydrant7.png,mask_img/000000008053.png,experiment,p,p,721.3321926000062
V3,5,26,Male,Right,49,Block 1,1.915927299996838,0.05,true,bus,bus,occlusion,high,mask,partial viewing,many small,Stimulus\all_stim\occlusion\partialviewing\manysmall\high\manysmall_partialViewing_high_bus6.png,mask_img/000000047407.png,experiment,u,u,723.9889415999642
V3,5,26,Male,Right,50,Block 1,1.8734038999537006,0.1,true,firehydrant,firehydrant,occlusion,low,mask,partial viewing,few large,Stimulus\all_stim\occlusion\partialviewing\fewlarge\low\fewlarge_partialViewing_low_firehydrant4.png,mask_img/000000028671.png,experiment,p,p,726.8443734999746
V3,5,26,Male,Right,51,Block 1,0.9239180000731722,0.025,true,banana,banana,occlusion,control,mask,partial viewing,many small,Stimulus\all_stim\occlusion\partialviewing\manysmall\control\manysmall_partialViewing_control_banana9.png,mask_img/000000033955.png,experiment,q,q,728.4763633999974
V3,5,26,Male,Right,52,Block 1,1.3318400999996811,0.025,true,building,building,occlusion,high,mask,partial viewing,few large,Stimulus\all_stim\occlusion\partialviewing\fewlarge\high\fewlarge_partialViewing_high_building5.png,mask_img/000000014759.png,experiment,r,r,730.7084831999382
V3,5,26,Male,Right,53,Block 1,1.3560775000369176,0.025,true,cat,cat,occlusion,low,mask,partial viewing,few large,Stimulus\all_stim\occlusion\partialviewing\fewlarge\low\fewlarge_partialViewing_low_cat4.png,mask_img/000000027675.png,experiment,o,o,733.0923674999503
V3,5,26,Male,Right,54,Block 1,1.8790892000542954,0.025,false,bird,tree,occlusion,high,mask,partial viewing,many small,Stimulus\all_stim\occlusion\partialviewing\manysmall\high\manysmall_partialViewing_high_bird2.png,mask_img/000000044117.png,experiment,i,e,735.6684642999899
V3,5,26,Male,Right,55,Block 1,1.0713071000063792,0.1,true,tree,tree,occlusion,control,mask,partial viewing,many small,Stimulus\all_stim\occlusion\partialviewing\manysmall\control\manysmall_partialViewing_control_tree9.png,mask_img/000000041840.png,experiment,i,i,737.780639900011
V3,5,26,Male,Right,56,Block 1,0.923790100030601,0.05,true,banana,banana,occlusion,low,mask,partial viewing,many small,Stimulus\all_stim\occlusion\partialviewing\manysmall\low\manysmall_partialViewing_low_banana4.png,mask_img/000000055202.png,experiment,q,q,739.8202919999603
V3,5,26,Male,Right,57,Block 1,1.042991800000891,0.025,false,bird,tree,occlusion,high,mask,partial viewing,few large,Stimulus\all_stim\occlusion\partialviewing\fewlarge\high\fewlarge_partialViewing_high_bird4.png,mask_img/000000013721.png,experiment,i,e,741.6922942999518
V3,5,26,Male,Right,58,Block 1,0.8679091000230983,0.025,true,banana,banana,occlusion,low,mask,partial viewing,few large,Stimulus\all_stim\occlusion\partialviewing\fewlarge\low\fewlarge_partialViewing_low_banana7.png,mask_img/000000023511.png,experiment,q,q,743.3163600999396
V3,5,26,Male,Right,59,Block 1,1.132320799981244,0.025,true,tree,tree,occlusion,low,mask,partial viewing,few large,Stimulus\all_stim\occlusion\partialviewing\fewlarge\low\fewlarge_partialViewing_low_tree1.png,mask_img/000000031053.png,experiment,i,i,745.5883476999588
V3,5,26,Male,Right,60,Block 1,1.4786298000253737,0.05,true,person,person,occlusion,low,mask,partial viewing,many small,Stimulus\all_stim\occlusion\partialviewing\manysmall\low\manysmall_partialViewing_low_person7.png,mask_img/000000062350.png,experiment,w,w,748.0923254999798
V3,5,26,Male,Right,61,Block 1,1.1606078998884186,0.05,true,building,building,occlusion,high,mask,partial viewing,few large,Stimulus\all_stim\occlusion\partialviewing\fewlarge\high\fewlarge_partialViewing_high_building8.png,mask_img/000000015366.png,experiment,r,r,750.0524066999787
V3,5,26,Male,Right,62,Block 1,2.2416429000440985,0.05,false,bus,tree,occlusion,high,mask,partial viewing,many small,Stimulus\all_stim\occlusion\partialviewing\manysmall\high\manysmall_partialViewing_high_bus9.png,mask_img/000000048268.png,experiment,i,u,753.324494499946
V3,5,26,Male,Right,63,Block 1,1.5801337000448257,0.05,false,bird,person,occlusion,high,mask,partial viewing,few large,Stimulus\all_stim\occlusion\partialviewing\fewlarge\high\fewlarge_partialViewing_high_bird6.png,mask_img/000000013944.png,experiment,w,e,755.5963638999965
V3,5,26,Male,Right,64,Block 1,0.8126592999324203,0.025,true,firehydrant,firehydrant,occlusion,low,mask,partial viewing,few large,Stimulus\all_stim\occlusion\partialviewing\fewlarge\low\fewlarge_partialViewing_low_firehydrant7.png,mask_img/000000028885.png,experiment,p,p,757.3803379000165
V3,5,26,Male,Right,65,Block 1,1.8802568999817595,0.05,true,bird,bird,occlusion,control,mask,partial viewing,few large,Stimulus\all_stim\occlusion\partialviewing\fewlarge\control\fewlarge_partialViewing_control_bird10.png,mask_img/000000001053.png,experiment,e,e,760.3082479999866
V3,5,26,Male,Right,66,Block 1,1.1484659999841824,0.1,true,person,person,occlusion,high,mask,partial viewing,many small,Stimulus\all_stim\occlusion\partialviewing\manysmall\high\manysmall_partialViewing_high_person7.png,mask_img/000000052562.png,experiment,w,w,762.572274300037
V3,5,26,Male,Right,67,Block 1,0.7646881999680772,0.1,true,firehydrant,firehydrant,occlusion,control,mask,partial viewing,few large,Stimulus\all_stim\occlusion\partialviewing\fewlarge\control\fewlarge_partialViewing_control_firehydrant9.png,mask_img/000000008329.png,experiment,p,p,764.0203616999788
V3,5,26,Male,Right,68,Block 1,2.376490000053309,0.05,false,firehydrant,tree,occlusion,high,mask,partial viewing,many small,Stimulus\all_stim\occlusion\partialviewing\manysmall\high\manysmall_partialViewing_high_firehydrant4.png,mask_img/000000050412.png,experiment,i,p,767.4605236999923
V3,5,26,Male,Right,69,Block 1,1.3199177000205964,0.025,true,building,building,occlusion,low,mask,partial viewing,few large,Stimulus\all_stim\occlusion\partialviewing\fewlarge\low\fewlarge_partialViewing_low_building10.png,mask_img/000000024591.png,experiment,r,r,769.5563934999518
V3,5,26,Male,Right,70,Block 1,1.3989697999786586,0.05,false,person,tree,occlusion,low,mask,partial viewing,many small,Stimulus\all_stim\occlusion\partialviewing\manysmall\low\manysmall_partialViewing_low_person9.png,mask_img/000000062427.png,experiment,i,w,771.7640860000392
V3,5,26,Male,Right,71,Block 1,1.0119884999003261,0.1,true,person,person,occlusion,high,mask,partial viewing,many small,Stimulus\all_stim\occlusion\partialviewing\manysmall\high\manysmall_partialViewing_high_person4.png,mask_img/000000052087.png,experiment,w,w,773.6205030999845
V3,5,26,Male,Right,72,Block 1,0.7416757999453694,0.025,true,firehydrant,firehydrant,occlusion,low,mask,partial viewing,few large,Stimulus\all_stim\occlusion\partialviewing\fewlarge\low\fewlarge_partialViewing_low_firehydrant5.png,mask_img/000000028698.png,experiment,p,p,775.156749799964
V3,5,26,Male,Right,73,Block 1,0.8563975000288337,0.025,true,building,building,occlusion,control,mask,partial viewing,many small,Stimulus\all_stim\occlusion\partialviewing\manysmall\control\manysmall_partialViewing_control_building6.png,mask_img/000000036006.png,experiment,r,r,776.7564397000242
V3,5,26,Male,Right,74,Block 1,1.4070477000204846,0.05,true,cat,cat,occlusion,low,mask,partial viewing,few large,Stimulus\all_stim\occlusion\partialviewing\fewlarge\low\fewlarge_partialViewing_low_cat6.png,mask_img/000000027764.png,experiment,o,o,778.932362099993
V3,5,26,Male,Right,75,Block 1,3.4590056999586523,0.05,true,tree,tree,occlusion,high,mask,partial viewing,few large,Stimulus\all_stim\occlusion\partialviewing\fewlarge\high\fewlarge_partialViewing_high_tree4.png,mask_img/000000021981.png,experiment,i,i,783.4214718999574
V3,5,26,Male,Right,76,Block 1,2.0145041999639943,0.1,true,bird,bird,occlusion,high,mask,partial viewing,few large,Stimulus\all_stim\occlusion\partialviewing\fewlarge\high\fewlarge_partialViewing_high_bird8.png,mask_img/000000014168.png,experiment,e,e,786.4923669999698
V3,5,26,Male,Right,77,Block 1,1.027496200054884,0.025,true,person,person,occlusion,low,mask,partial viewing,few large,Stimulus\all_stim\occlusion\partialviewing\fewlarge\low\fewlarge_partialViewing_low_person1.png,mask_img/000000029090.png,experiment,w,w,788.4935181000037
V3,5,26,Male,Right,78,Block 1,1.2374714999459684,0.025,true,tree,tree,occlusion,high,mask,partial viewing,many small,Stimulus\all_stim\occlusion\partialviewing\manysmall\high\manysmall_partialViewing_high_tree7.png,mask_img/000000053635.png,experiment,i,i,790.6685275000054
V3,5,26,Male,Right,79,Block 1,1.6485558000858873,0.05,true,bus,bus,occlusion,control,mask,partial viewing,few large,Stimulus\all_stim\occlusion\partialviewing\fewlarge\control\fewlarge_partialViewing_control_bus6.png,mask_img/000000005862.png,experiment,u,u,793.220568299992
V3,5,26,Male,Right,80,Block 1,2.063709400012158,0.025,true,bus,bus,occlusion,control,mask,partial viewing,few large,Stimulus\all_stim\occlusion\partialviewing\fewlarge\control\fewlarge_partialViewing_control_bus8.png,mask_img/000000006153.png,experiment,u,u,796.0363080999814
V3,5,26,Male,Right,81,Block 1,4.070420900010504,0.05,false,banana,bird,occlusion,high,mask,partial viewing,many small,Stimulus\all_stim\occlusion\partialviewing\manysmall\high\manysmall_partialViewing_high_banana1.png,mask_img/000000041962.png,experiment,e,q,801.0523388000438
V3,5,26,Male,Right,82,Block 1,0.8747088999953121,0.1,true,banana,banana,occlusion,low,mask,partial viewing,many small,Stimulus\all_stim\occlusion\partialviewing\manysmall\low\manysmall_partialViewing_low_banana8.png,mask_img/000000055630.png,experiment,q,q,803.012305399985
V3,5,26,Male,Right,83,Block 1,1.4180916999466717,0.1,true,building,building,occlusion,low,mask,partial viewing,many small,Stimulus\all_stim\occlusion\partialviewing\manysmall\low\manysmall_partialViewing_low_building6.png,mask_img/000000057979.png,experiment,r,r,805.3405032999581
V3,5,26,Male,Right,84,Block 1,1.3139615999534726,0.1,true,bird,bird,occlusion,low,mask,partial viewing,few large,Stimulus\all_stim\occlusion\partialviewing\fewlarge\low\fewlarge_partialViewing_low_bird10.png,mask_img/000000023988.png,experiment,e,e,807.4763328999979
V3,5,26,Male,Right,85,Block 1,0.8199984000530094,0.025,true,banana,banana,occlusion,low,mask,partial viewing,few large,Stimulus\all_stim\occlusion\partialviewing\fewlarge\low\fewlarge_partialViewing_low_banana4.png,mask_img/000000023015.png,experiment,q,q,809.4605295000365
V3,5,26,Male,Right,86,Block 1,0.9273431999608874,0.1,true,firehydrant,firehydrant,occlusion,low,mask,partial viewing,many small,Stimulus\all_stim\occlusion\partialviewing\manysmall\low\manysmall_partialViewing_low_firehydrant10.png,mask_img/000000060529.png,experiment,p,p,811.3485564000439
V3,5,26,Male,Right,87,Block 1,1.1663281999062747,0.025,true,cat,cat,occlusion,low,mask,partial viewing,few large,Stimulus\all_stim\occlusion\partialviewing\fewlarge\low\fewlarge_partialViewing_low_cat2.png,mask_img/000000027371.png,experiment,o,o,813.5883626999566
V3,5,26,Male,Right,88,Block 1,0.9348376999842003,0.025,true,tree,tree,occlusion,low,mask,partial viewing,many small,Stimulus\all_stim\occlusion\partialviewing\manysmall\low\manysmall_partialViewing_low_tree6.png,mask_img/000000063715.png,experiment,i,i,815.4364451000001
V3,5,26,Male,Right,89,Block 1,1.264547499944456,0.1,true,bird,bird,occlusion,low,mask,partial viewing,many small,Stimulus\all_stim\occlusion\partialviewing\manysmall\low\manysmall_partialViewing_low_bird8.png,mask_img/000000056137.png,experiment,e,e,817.7804045999656
V3,5,26,Male,Right,90,Block 1,1.1720043000532314,0.025,true,bus,bus,occlusion,high,mask,partial viewing,few large,Stimulus\all_stim\occlusion\partialviewing\fewlarge\high\fewlarge_partialViewing_high_bus4.png,mask_img/000000015927.png,experiment,u,u,819.9645140999928
V3,5,26,Male,Right,91,Block 1,1.13304570002947,0.1,true,cat,cat,occlusion,control,mask,partial viewing,few large,Stimulus\all_stim\occlusion\partialviewing\fewlarge\control\fewlarge_partialViewing_control_cat2.png,mask_img/000000006489.png,experiment,o,o,822.1646676999517
V3,5,26,Male,Right,92,Block 1,2.2441300000064075,0.1,false,banana,firehydrant,occlusion,high,mask,partial viewing,few large,Stimulus\all_stim\occlusion\partialviewing\fewlarge\high\fewlarge_partialViewing_high_banana8.png,mask_img/000000012733.png,experiment,p,q,825.2047283999855
V3,5,26,Male,Right,93,Block 1,0.9405220999615267,0.05,true,building,building,occlusion,low,mask,partial viewing,many small,Stimulus\all_stim\occlusion\partialviewing\manysmall\low\manysmall_partialViewing_low_building3.png,mask_img/000000057646.png,experiment,r,r,827.3005913000088
V3,5,26,Male,Right,94,Block 1,1.215349700069055,0.025,true,person,person,occlusion,low,mask,partial viewing,many small,Stimulus\all_stim\occlusion\partialviewing\manysmall\low\manysmall_partialViewing_low_person6.png,mask_img/000000062337.png,experiment,w,w,829.3724228000501
V3,5,26,Male,Right,95,Block 1,1.1513149000238627,0.05,true,tree,tree,occlusion,control,mask,partial viewing,many small,Stimulus\all_stim\occlusion\partialviewing\manysmall\control\manysmall_partialViewing_control_tree5.png,mask_img/000000041174.png,experiment,i,i,831.6845447999658
V3,5,26,Male,Right,96,Block 1,1.4169989000074565,0.05,true,bus,bus,occlusion,low,mask,partial viewing,few large,Stimulus\all_stim\occlusion\partialviewing\fewlarge\low\fewlarge_partialViewing_low_bus1.png,mask_img/000000025820.png,experiment,u,u,834.1327890999382
V3,5,26,Male,Right,97,Block 1,0.9214740000898018,0.05,true,person,person,occlusion,high,mask,partial viewing,few large,Stimulus\all_stim\occlusion\partialviewing\fewlarge\high\fewlarge_partialViewing_high_person4.png,mask_img/000000020202.png,experiment,w,w,836.1405569999479
V3,5,26,Male,Right,98,Block 1,1.4875978999771178,0.1,true,cat,cat,occlusion,high,mask,partial viewing,few large,Stimulus\all_stim\occlusion\partialviewing\fewlarge\high\fewlarge_partialViewing_high_cat2.png,mask_img/000000017352.png,experiment,o,o,838.5964081999846
V3,5,26,Male,Right,99,Block 1,0.8841409999877214,0.025,true,tree,tree,occlusion,control,mask,partial viewing,few large,Stimulus\all_stim\occlusion\partialviewing\fewlarge\control\fewlarge_partialViewing_control_tree6.png,mask_img/000000011328.png,experiment,i,i,840.2683910999913
V3,5,26,Male,Right,100,Block 1,0.9693375000497326,0.1,true,cat,cat,occlusion,high,mask,partial viewing,few large,Stimulus\all_stim\occlusion\partialviewing\fewlarge\high\fewlarge_partialViewing_high_cat5.png,mask_img/000000017409.png,experiment,o,o,842.1570078999503
V3,5,26,Male,Right,101,Block 1,1.374660100089386,0.025,true,tree,tree,occlusion,control,mask,partial viewing,many small,Stimulus\all_stim\occlusion\partialviewing\manysmall\control\manysmall_partialViewing_control_tree8.png,mask_img/000000041577.png,experiment,i,i,844.6445105000166
V3,5,26,Male,Right,102,Block 1,0.8167945999884978,0.025,true,firehydrant,firehydrant,occlusion,control,mask,partial viewing,many small,Stimulus\all_stim\occlusion\partialviewing\manysmall\control\manysmall_partialViewing_control_firehydrant9.png,mask_img/000000039643.png,experiment,p,p,846.364500500029
V3,5,26,Male,Right,103,Block 1,1.0795096000656486,0.05,true,cat,cat,occlusion,control,mask,partial viewing,few large,Stimulus\all_stim\occlusion\partialviewing\fewlarge\control\fewlarge_partialViewing_control_cat6.png,mask_img/000000007179.png,experiment,o,o,848.2524975000415
V3,5,26,Male,Right,104,Block 1,1.1220819000154734,0.1,true,bus,bus,occlusion,control,mask,partial viewing,many small,Stimulus\all_stim\occlusion\partialviewing\manysmall\control\manysmall_partialViewing_control_bus4.png,mask_img/000000036966.png,experiment,u,u,850.452507799957
V3,5,26,Male,Right,105,Block 1,2.3592467000707984,0.025,true,bird,bird,occlusion,low,mask,partial viewing,many small,Stimulus\all_stim\occlusion\partialviewing\manysmall\low\manysmall_partialViewing_low_bird4.png,mask_img/000000055859.png,experiment,e,e,853.8764120000415
V3,5,26,Male,Right,106,Block 1,1.262590799946338,0.025,true,tree,tree,occlusion,high,mask,partial viewing,many small,Stimulus\all_stim\occlusion\partialviewing\manysmall\high\manysmall_partialViewing_high_tree1.png,mask_img/000000052784.png,experiment,i,i,855.9644812999759
V3,5,26,Male,Right,107,Block 1,1.0193876000121236,0.05,true,building,building,occlusion,high,mask,partial viewing,many small,Stimulus\all_stim\occlusion\partialviewing\manysmall\high\manysmall_partialViewing_high_building3.png,mask_img/000000045655.png,experiment,r,r,858.0526275000302
V3,5,26,Male,Right,108,Block 1,1.289559500059113,0.05,false,bird,cat,occlusion,high,mask,partial viewing,many small,Stimulus\all_stim\occlusion\partialviewing\manysmall\high\manysmall_partialViewing_high_bird5.png,mask_img/000000044437.png,experiment,o,e,860.4848980000243
V3,5,26,Male,Right,109,Block 1,1.08685580000747,0.1,true,cat,cat,occlusion,low,mask,partial viewing,few large,Stimulus\all_stim\occlusion\partialviewing\fewlarge\low\fewlarge_partialViewing_low_cat4.png,mask_img/000000027675.png,experiment,o,o,862.3644280999433
V3,5,26,Male,Right,110,Block 1,0.9725710999919102,0.025,true,tree,tree,occlusion,low,mask,partial viewing,many small,Stimulus\all_stim\occlusion\partialviewing\manysmall\low\manysmall_partialViewing_low_tree5.png,mask_img/000000063482.png,experiment,i,i,864.3965832999675
V3,5,26,Male,Right,111,Block 1,0.9159976000664756,0.05,true,bird,bird,occlusion,high,mask,partial viewing,few large,Stimulus\all_stim\occlusion\partialviewing\fewlarge\high\fewlarge_partialViewing_high_bird2.png,mask_img/000000013169.png,experiment,e,e,866.3083742000163
V3,5,26,Male,Right,112,Block 1,1.0718461000360548,0.05,true,building,building,occlusion,high,mask,partial viewing,many small,Stimulus\all_stim\occlusion\partialviewing\manysmall\high\manysmall_partialViewing_high_building2.png,mask_img/000000045306.png,experiment,r,r,868.2286667999579
V3,5,26,Male,Right,113,Block 1,1.1217867999803275,0.1,true,bird,bird,occlusion,low,mask,partial viewing,few large,Stimulus\all_stim\occlusion\partialviewing\fewlarge\low\fewlarge_partialViewing_low_bird7.png,mask_img/000000024403.png,experiment,e,e,870.2367210999364
V3,5,26,Male,Right,114,Block 1,1.199922600062564,0.025,true,cat,cat,occlusion,high,mask,partial viewing,few large,Stimulus\all_stim\occlusion\partialviewing\fewlarge\high\fewlarge_partialViewing_high_cat4.png,mask_img/000000017364.png,experiment,o,o,872.5811598999426
V3,5,26,Male,Right,115,Block 1,2.2632326999446377,0.05,false,banana,bird,occlusion,high,mask,partial viewing,few large,Stimulus\all_stim\occlusion\partialviewing\fewlarge\high\fewlarge_partialViewing_high_banana9.png,mask_img/000000012999.png,experiment,e,q,875.7090936000459
V3,5,26,Male,Right,116,Block 1,2.2472523000324145,0.025,true,bird,bird,occlusion,control,mask,partial viewing,few large,Stimulus\all_stim\occlusion\partialviewing\fewlarge\control\fewlarge_partialViewing_control_bird4.png,mask_img/000000001997.png,experiment,e,e,878.7086510999361
V3,5,26,Male,Right,117,Block 1,0.9570046999724582,0.05,true,cat,cat,occlusion,low,mask,partial viewing,few large,Stimulus\all_stim\occlusion\partialviewing\fewlarge\low\fewlarge_partialViewing_low_cat2.png,mask_img/000000027371.png,experiment,o,o,880.8046821999596
V3,5,26,Male,Right,118,Block 1,2.542959599988535,0.1,true,cat,cat,occlusion,low,mask,partial viewing,few large,Stimulus\all_stim\occlusion\partialviewing\fewlarge\low\fewlarge_partialViewing_low_cat8.png,mask_img/000000028171.png,experiment,o,o,884.3326310999691
V3,5,26,Male,Right,119,Block 1,0.9236062000272796,0.025,false,firehydrant,person,occlusion,high,mask,partial viewing,many small,Stimulus\all_stim\occlusion\partialviewing\manysmall\high\manysmall_partialViewing_high_firehydrant10.png,mask_img/000000050148.png,experiment,w,p,886.2126188999973
V3,5,26,Male,Right,120,Block 1,1.2565032000420615,0.025,true,bus,bus,occlusion,high,mask,partial viewing,many small,Stimulus\all_stim\occlusion\partialviewing\manysmall\high\manysmall_partialViewing_high_bus4.png,mask_img/000000047316.png,experiment,u,u,888.156681500026
V3,5,26,Male,Right,121,Block 1,1.0461724000051618,0.05,true,tree,tree,occlusion,low,mask,partial viewing,few large,Stimulus\all_stim\occlusion\partialviewing\fewlarge\low\fewlarge_partialViewing_low_tree6.png,mask_img/000000032720.png,experiment,i,i,890.1326138000004
V3,5,26,Male,Right,122,Block 1,0.896813900093548,0.1,true,building,building,occlusion,high,mask,partial viewing,many small,Stimulus\all_stim\occlusion\partialviewing\manysmall\high\manysmall_partialViewing_high_building6.png,mask_img/000000046155.png,experiment,r,r,892.1248873999575
V3,5,26,Male,Right,123,Block 1,1.219488500035368,0.05,false,banana,bird,occlusion,low,mask,partial viewing,many small,Stimulus\all_stim\occlusion\partialviewing\manysmall\low\manysmall_partialViewing_low_banana9.png,mask_img/000000055652.png,experiment,e,q,894.2446198000107
V3,5,26,Male,Right,124,Block 1,0.9015234999824315,0.1,false,bus,building,occlusion,high,mask,partial viewing,many small,Stimulus\all_stim\occlusion\partialviewing\manysmall\high\manysmall_partialViewing_high_bus2.png,mask_img/000000046852.png,experiment,r,u,896.3008471999783
V3,5,26,Male,Right,125,Block 1,0.8809917999897152,0.1,true,person,person,occlusion,high,mask,partial viewing,few large,Stimulus\all_stim\occlusion\partialviewing\fewlarge\high\fewlarge_partialViewing_high_person6.png,mask_img/000000020392.png,experiment,w,w,898.0928344000131
V3,5,26,Male,Right,126,Block 1,0.7782612000592053,0.025,true,bird,bird,occlusion,control,mask,partial viewing,many small,Stimulus\all_stim\occlusion\partialviewing\manysmall\control\manysmall_partialViewing_control_bird2.png,mask_img/000000034455.png,experiment,e,e,899.6928574000485
V3,5,26,Male,Right,127,Block 1,0.7758815999841318,0.025,true,firehydrant,firehydrant,occlusion,control,mask,partial viewing,few large,Stimulus\all_stim\occlusion\partialviewing\fewlarge\control\fewlarge_partialViewing_control_firehydrant2.png,mask_img/000000007934.png,experiment,p,p,901.5727002000203
V3,5,26,Male,Right,128,Block 1,1.3513381000375375,0.05,false,banana,bird,occlusion,high,mask,partial viewing,few large,Stimulus\all_stim\occlusion\partialviewing\fewlarge\high\fewlarge_partialViewing_high_banana7.png,mask_img/000000012567.png,experiment,e,q,903.9966107000364
V3,5,26,Male,Right,129,Block 1,1.1277622999623418,0.025,true,bird,bird,occlusion,control,mask,partial viewing,few large,Stimulus\all_stim\occlusion\partialviewing\fewlarge\control\fewlarge_partialViewing_control_bird6.png,mask_img/000000002337.png,experiment,e,e,905.8366464000428
V3,5,26,Male,Right,130,Block 1,0.8355106000090018,0.05,true,building,building,occlusion,high,mask,partial viewing,few large,Stimulus\all_stim\occlusion\partialviewing\fewlarge\high\fewlarge_partialViewing_high_building1.png,mask_img/000000014335.png,experiment,r,r,907.3885618000058
V3,5,26,Male,Right,131,Block 1,0.790743299992755,0.1,true,bus,bus,occlusion,control,mask,partial viewing,many small,Stimulus\all_stim\occlusion\partialviewing\manysmall\control\manysmall_partialViewing_control_bus10.png,mask_img/000000036482.png,experiment,u,u,909.0285616000183
V3,5,26,Male,Right,132,Block 1,0.8139550000196323,0.025,true,banana,banana,occlusion,control,mask,partial viewing,few large,Stimulus\all_stim\occlusion\partialviewing\fewlarge\control\fewlarge_partialViewing_control_banana1.png,mask_img/000000000042.png,experiment,q,q,910.9086268999381
V3,5,26,Male,Right,133,Block 1,1.3965630000457168,0.025,true,person,person,occlusion,high,mask,partial viewing,few large,Stimulus\all_stim\occlusion\partialviewing\fewlarge\high\fewlarge_partialViewing_high_person8.png,mask_img/000000020570.png,experiment,w,w,913.2606954999501
V3,5,26,Male,Right,134,Block 1,0.7980776999611408,0.05,true,building,building,occlusion,low,mask,partial viewing,few large,Stimulus\all_stim\occlusion\partialviewing\fewlarge\low\fewlarge_partialViewing_low_building1.png,mask_img/000000024552.png,experiment,r,r,915.1166178999702
V3,5,26,Male,Right,135,Block 1,0.8693036999320611,0.1,true,firehydrant,firehydrant,occlusion,control,mask,partial viewing,many small,Stimulus\all_stim\occlusion\partialviewing\manysmall\control\manysmall_partialViewing_control_firehydrant7.png,mask_img/000000039475.png,experiment,p,p,917.1409295999911
V3,5,26,Male,Right,136,Block 1,1.3014706000685692,0.05,true,building,building,occlusion,high,mask,partial viewing,few large,Stimulus\all_stim\occlusion\partialviewing\fewlarge\high\fewlarge_partialViewing_high_building6.png,mask_img/000000014774.png,experiment,r,r,919.5567114000442
V3,5,26,Male,Right,137,Block 1,1.1237374000484124,0.05,true,banana,banana,occlusion,control,mask,partial viewing,few large,Stimulus\all_stim\occlusion\partialviewing\fewlarge\control\fewlarge_partialViewing_control_banana5.png,mask_img/000000000459.png,experiment,q,q,921.5724591000471
V3,5,26,Male,Right,138,Block 1,1.0059084000531584,0.1,true,cat,cat,occlusion,high,mask,partial viewing,few large,Stimulus\all_stim\occlusion\partialviewing\fewlarge\high\fewlarge_partialViewing_high_cat6.png,mask_img/000000017476.png,experiment,o,o,923.3886355999857
V3,5,26,Male,Right,139,Block 1,0.7920378999551758,0.025,false,bus,building,occlusion,low,mask,partial viewing,many small,Stimulus\all_stim\occlusion\partialviewing\manysmall\low\manysmall_partialViewing_low_bus9.png,mask_img/000000058910.png,experiment,r,u,925.2524672000436
V3,5,26,Male,Right,140,Block 1,0.739748099935241,0.025,true,banana,banana,occlusion,low,mask,partial viewing,many small,Stimulus\all_stim\occlusion\partialviewing\manysmall\low\manysmall_partialViewing_low_banana6.png,mask_img/000000055460.png,experiment,q,q,927.1246284999652
V3,5,26,Male,Right,141,Block 1,1.072264900081791,0.1,true,bus,bus,occlusion,control,mask,partial viewing,few large,Stimulus\all_stim\occlusion\partialviewing\fewlarge\control\fewlarge_partialViewing_control_bus9.png,mask_img/000000006263.png,experiment,u,u,929.2206342000281
V3,5,26,Male,Right,142,Block 1,0.8044961000559852,0.05,true,banana,banana,occlusion,control,mask,partial viewing,many small,Stimulus\all_stim\occlusion\partialviewing\manysmall\control\manysmall_partialViewing_control_banana4.png,mask_img/000000033667.png,experiment,q,q,931.1085344000021
V3,5,26,Male,Right,143,Block 1,1.4351677000522614,0.05,true,tree,tree,occlusion,control,mask,partial viewing,many small,Stimulus\all_stim\occlusion\partialviewing\manysmall\control\manysmall_partialViewing_control_tree1.png,mask_img/000000040886.png,experiment,i,i,933.3886674999958
V3,5,26,Male,Right,144,Block 1,2.0355568999657407,0.025,true,bird,bird,occlusion,control,mask,partial viewing,many small,Stimulus\all_stim\occlusion\partialviewing\manysmall\control\manysmall_partialViewing_control_bird9.png,mask_img/000000035514.png,experiment,e,e,948.5889005999779
V3,5,26,Male,Right,145,Block 2,1.0117212000768632,0.1,true,tree,tree,occlusion,high,mask,partial viewing,many small,Stimulus\all_stim\occlusion\partialviewing\manysmall\high\manysmall_partialViewing_high_tree6.png,mask_img/000000053539.png,experiment,i,i,950.716835499974
V3,5,26,Male,Right,146,Block 2,1.3527783000608906,0.05,false,firehydrant,building,occlusion,high,mask,partial viewing,many small,Stimulus\all_stim\occlusion\partialviewing\manysmall\high\manysmall_partialViewing_high_firehydrant3.png,mask_img/000000050276.png,experiment,r,p,952.8605430000462
V3,5,26,Male,Right,147,Block 2,0.7340569999068975,0.025,true,building,building,occlusion,low,mask,partial viewing,few large,Stimulus\all_stim\occlusion\partialviewing\fewlarge\low\fewlarge_partialViewing_low_building7.png,mask_img/000000025192.png,experiment,r,r,954.2926985999802
V3,5,26,Male,Right,148,Block 2,1.2034013000084087,0.025,true,person,person,occlusion,control,mask,partial viewing,few large,Stimulus\all_stim\occlusion\partialviewing\fewlarge\control\fewlarge_partialViewing_control_person8.png,mask_img/000000009729.png,experiment,w,w,956.5006843999727
V3,5,26,Male,Right,149,Block 2,0.8929419999476522,0.025,false,firehydrant,building,occlusion,high,mask,partial viewing,many small,Stimulus\all_stim\occlusion\partialviewing\manysmall\high\manysmall_partialViewing_high_firehydrant7.png,mask_img/000000050790.png,experiment,r,p,958.0927798999473
V3,5,26,Male,Right,150,Block 2,1.2448719999520108,0.05,true,firehydrant,firehydrant,occlusion,low,mask,partial viewing,few large,Stimulus\all_stim\occlusion\partialviewing\fewlarge\low\fewlarge_partialViewing_low_firehydrant10.png,mask_img/000000028367.png,experiment,p,p,960.0525785000063
V3,5,26,Male,Right,151,Block 2,0.822087699896656,0.025,true,banana,banana,occlusion,high,mask,partial viewing,many small,Stimulus\all_stim\occlusion\partialviewing\manysmall\high\manysmall_partialViewing_high_banana5.png,mask_img/000000042541.png,experiment,q,q,961.9646911999444
V3,5,26,Male,Right,152,Block 2,0.8412156000267714,0.1,true,bird,bird,occlusion,control,mask,partial viewing,many small,Stimulus\all_stim\occlusion\partialviewing\manysmall\control\manysmall_partialViewing_control_bird8.png,mask_img/000000035190.png,experiment,e,e,963.7966506000375
V3,5,26,Male,Right,153,Block 2,0.9022330000298098,0.1,true,cat,cat,occlusion,control,mask,partial viewing,few large,Stimulus\all_stim\occlusion\partialviewing\fewlarge\control\fewlarge_partialViewing_control_cat10.png,mask_img/000000006481.png,experiment,o,o,965.7327126000309
V3,5,26,Male,Right,154,Block 2,0.7791563000064343,0.025,true,tree,tree,occlusion,low,mask,partial viewing,many small,Stimulus\all_stim\occlusion\partialviewing\manysmall\low\manysmall_partialViewing_low_tree1.png,mask_img/000000062690.png,experiment,i,i,967.4686805999372
V3,5,26,Male,Right,155,Block 2,0.8367528999224305,0.1,true,bird,bird,occlusion,low,mask,partial viewing,many small,Stimulus\all_stim\occlusion\partialviewing\manysmall\low\manysmall_partialViewing_low_bird3.png,mask_img/000000055849.png,experiment,e,e,969.3087473999476
V3,5,26,Male,Right,156,Block 2,1.7234961000503972,0.05,true,bus,bus,occlusion,control,mask,partial viewing,many small,Stimulus\all_stim\occlusion\partialviewing\manysmall\control\manysmall_partialViewing_control_bus3.png,mask_img/000000036765.png,experiment,u,u,971.804543199949
V3,5,26,Male,Right,157,Block 2,1.8804212000686675,0.05,false,person,tree,occlusion,high,mask,partial viewing,few large,Stimulus\all_stim\occlusion\partialviewing\fewlarge\high\fewlarge_partialViewing_high_person8.png,mask_img/000000020570.png,experiment,i,w,974.4452759999549
V3,5,26,Male,Right,158,Block 2,0.8069207000080496,0.1,true,person,person,occlusion,low,mask,partial viewing,few large,Stimulus\all_stim\occlusion\partialviewing\fewlarge\low\fewlarge_partialViewing_low_person3.png,mask_img/000000029506.png,experiment,w,w,975.9885784999933
V3,5,26,Male,Right,159,Block 2,0.9123382000252604,0.1,true,firehydrant,firehydrant,occlusion,high,mask,partial viewing,few large,Stimulus\all_stim\occlusion\partialviewing\fewlarge\high\fewlarge_partialViewing_high_firehydrant1.png,mask_img/000000017944.png,experiment,p,p,977.7650050999364
V3,5,26,Male,Right,160,Block 2,1.0118506998987868,0.025,true,building,building,occlusion,low,mask,partial viewing,few large,Stimulus\all_stim\occlusion\partialviewing\fewlarge\low\fewlarge_partialViewing_low_building3.png,mask_img/000000024808.png,experiment,r,r,979.8768330999883
V3,5,26,Male,Right,161,Block 2,1.1707338000414893,0.05,true,bird,bird,occlusion,low,mask,partial viewing,few large,Stimulus\all_stim\occlusion\partialviewing\fewlarge\low\fewlarge_partialViewing_low_bird9.png,mask_img/000000024530.png,experiment,e,e,981.7651345999911
V3,5,26,Male,Right,162,Block 2,1.8096457000356168,0.05,false,bird,cat,occlusion,high,mask,partial viewing,many small,Stimulus\all_stim\occlusion\partialviewing\manysmall\high\manysmall_partialViewing_high_bird2.png,mask_img/000000044117.png,experiment,o,e,984.6687736000167
V3,5,26,Male,Right,163,Block 2,0.7994787999195978,0.1,true,tree,tree,occlusion,control,mask,partial viewing,few large,Stimulus\all_stim\occlusion\partialviewing\fewlarge\control\fewlarge_partialViewing_control_tree7.png,mask_img/000000011504.png,experiment,i,i,986.4609294999391
V3,5,26,Male,Right,164,Block 2,0.9083969000494108,0.1,true,bus,bus,occlusion,low,mask,partial viewing,few large,Stimulus\all_stim\occlusion\partialviewing\fewlarge\low\fewlarge_partialViewing_low_bus5.png,mask_img/000000026497.png,experiment,u,u,988.3729944999795
V3,5,26,Male,Right,165,Block 2,1.4767490000231192,0.05,false,banana,bird,occlusion,low,mask,partial viewing,few large,Stimulus\all_stim\occlusion\partialviewing\fewlarge\low\fewlarge_partialViewing_low_banana6.png,mask_img/000000023137.png,experiment,e,q,990.9968082000269
V3,5,26,Male,Right,166,Block 2,0.7711394000798464,0.1,true,building,building,occlusion,high,mask,partial viewing,many small,Stimulus\all_stim\occlusion\partialviewing\manysmall\high\manysmall_partialViewing_high_building8.png,mask_img/000000046245.png,experiment,r,r,992.6047183000483
V3,5,26,Male,Right,167,Block 2,0.9597125999862328,0.025,true,firehydrant,firehydrant,occlusion,low,mask,partial viewing,few large,Stimulus\all_stim\occlusion\partialviewing\fewlarge\low\fewlarge_partialViewing_low_firehydrant9.png,mask_img/000000029056.png,experiment,p,p,994.6527253999375
V3,5,26,Male,Right,168,Block 2,1.3551356999669224,0.1,true,person,person,occlusion,low,mask,partial viewing,many small,Stimulus\all_stim\occlusion\partialviewing\manysmall\low\manysmall_partialViewing_low_person3.png,mask_img/000000062128.png,experiment,w,w,997.0046377000399
V3,5,26,Male,Right,169,Block 2,0.7573207999812439,0.1,true,firehydrant,firehydrant,occlusion,control,mask,partial viewing,many small,Stimulus\all_stim\occlusion\partialviewing\manysmall\control\manysmall_partialViewing_control_firehydrant8.png,mask_img/000000039553.png,experiment,p,p,998.668598899967
V3,5,26,Male,Right,170,Block 2,1.1004496000241488,0.1,true,cat,cat,occlusion,control,mask,partial viewing,few large,Stimulus\all_stim\occlusion\partialviewing\fewlarge\control\fewlarge_partialViewing_control_cat4.png,mask_img/000000006842.png,experiment,o,o,1000.5246894999873
V3,5,26,Male,Right,171,Block 2,0.7991384000051767,0.1,true,banana,banana,occlusion,control,mask,partial viewing,many small,Stimulus\all_stim\occlusion\partialviewing\manysmall\control\manysmall_partialViewing_control_banana8.png,mask_img/000000033904.png,experiment,q,q,1002.1327317999676
V3,5,26,Male,Right,172,Block 2,1.3250999000156298,0.025,true,bus,bus,occlusion,low,mask,partial viewing,few large,Stimulus\all_stim\occlusion\partialviewing\fewlarge\low\fewlarge_partialViewing_low_bus8.png,mask_img/000000026782.png,experiment,u,u,1004.4526950999862
V3,5,26,Male,Right,173,Block 2,0.8646633001044393,0.1,true,banana,banana,occlusion,low,mask,partial viewing,few large,Stimulus\all_stim\occlusion\partialviewing\fewlarge\low\fewlarge_partialViewing_low_banana7.png,mask_img/000000023511.png,experiment,q,q,1006.4766613999382
V3,5,26,Male,Right,174,Block 2,1.3831171999918297,0.025,false,bird,tree,occlusion,low,mask,partial viewing,few large,Stimulus\all_stim\occlusion\partialviewing\fewlarge\low\fewlarge_partialViewing_low_bird3.png,mask_img/000000024157.png,experiment,i,e,1008.55664049997
V3,5,26,Male,Right,175,Block 2,0.9624649999896064,0.1,true,tree,tree,occlusion,low,mask,partial viewing,few large,Stimulus\all_stim\occlusion\partialviewing\fewlarge\low\fewlarge_partialViewing_low_tree7.png,mask_img/000000032906.png,experiment,i,i,1010.5167772000423
V3,5,26,Male,Right,176,Block 2,1.1327232000185177,0.025,true,person,person,occlusion,high,mask,partial viewing,many small,Stimulus\all_stim\occlusion\partialviewing\manysmall\high\manysmall_partialViewing_high_person8.png,mask_img/000000052606.png,experiment,w,w,1012.7167477000039
V3,5,26,Male,Right,177,Block 2,0.8668708000332117,0.025,true,bus,bus,occlusion,low,mask,partial viewing,many small,Stimulus\all_stim\occlusion\partialviewing\manysmall\low\manysmall_partialViewing_low_bus1.png,mask_img/000000058232.png,experiment,u,u,1014.4687008999754
V3,5,26,Male,Right,178,Block 2,0.780505400034599,0.1,true,banana,banana,occlusion,low,mask,partial viewing,many small,Stimulus\all_stim\occlusion\partialviewing\manysmall\low\manysmall_partialViewing_low_banana4.png,mask_img/000000055202.png,experiment,q,q,1016.2527105000336
V3,5,26,Male,Right,179,Block 2,0.9561562000308186,0.025,true,bus,bus,occlusion,low,mask,partial viewing,many small,Stimulus\all_stim\occlusion\partialviewing\manysmall\low\manysmall_partialViewing_low_bus2.png,mask_img/000000058627.png,experiment,u,u,1018.292691300041
V3,5,26,Male,Right,180,Block 2,0.9278852000134066,0.025,true,firehydrant,firehydrant,occlusion,control,mask,partial viewing,few large,Stimulus\all_stim\occlusion\partialviewing\fewlarge\control\fewlarge_partialViewing_control_firehydrant3.png,mask_img/000000007946.png,experiment,p,p,1020.388710499974
V3,5,26,Male,Right,181,Block 2,0.9763860999373719,0.025,true,bus,bus,occlusion,control,mask,partial viewing,few large,Stimulus\all_stim\occlusion\partialviewing\fewlarge\control\fewlarge_partialViewing_control_bus7.png,mask_img/000000006146.png,experiment,u,u,1022.452780499938
V3,5,26,Male,Right,182,Block 2,0.6130894999951124,0.1,true,banana,banana,occlusion,control,mask,partial viewing,many small,Stimulus\all_stim\occlusion\partialviewing\manysmall\control\manysmall_partialViewing_control_banana4.png,mask_img/000000033667.png,experiment,q,q,1024.113230900024
V3,5,26,Male,Right,183,Block 2,0.9635209999978542,0.1,true,banana,banana,occlusion,high,mask,partial viewing,few large,Stimulus\all_stim\occlusion\partialviewing\fewlarge\high\fewlarge_partialViewing_high_banana2.png,mask_img/000000012179.png,experiment,q,q,1026.2533185000066
V3,5,26,Male,Right,184,Block 2,1.2734890000429004,0.025,false,bird,person,occlusion,high,mask,partial viewing,many small,Stimulus\all_stim\occlusion\partialviewing\manysmall\high\manysmall_partialViewing_high_bird4.png,mask_img/000000044136.png,experiment,w,e,1028.2367894999916
V3,5,26,Male,Right,185,Block 2,0.8582717999815941,0.1,true,bus,bus,occlusion,control,mask,partial viewing,many small,Stimulus\all_stim\occlusion\partialviewing\manysmall\control\manysmall_partialViewing_control_bus2.png,mask_img/000000036622.png,experiment,u,u,1030.1808400000446
V3,5,26,Male,Right,186,Block 2,0.7524885999737307,0.025,true,person,person,occlusion,high,mask,partial viewing,few large,Stimulus\all_stim\occlusion\partialviewing\fewlarge\high\fewlarge_partialViewing_high_person4.png,mask_img/000000020202.png,experiment,w,w,1031.6606569000287
V3,5,26,Male,Right,187,Block 2,1.7329246000153944,0.1,true,cat,cat,occlusion,low,mask,partial viewing,many small,Stimulus\all_stim\occlusion\partialviewing\manysmall\low\manysmall_partialViewing_low_cat1.png,mask_img/000000059036.png,experiment,o,o,1034.4927190999733
V3,5,26,Male,Right,188,Block 2,0.9038869000505656,0.1,true,tree,tree,occlusion,control,mask,partial viewing,few large,Stimulus\all_stim\occlusion\partialviewing\fewlarge\control\fewlarge_partialViewing_control_tree2.png,mask_img/000000010560.png,experiment,i,i,1036.0928327000001
V3,5,26,Male,Right,189,Block 2,1.127934299991466,0.025,true,person,person,occlusion,control,mask,partial viewing,few large,Stimulus\all_stim\occlusion\partialviewing\fewlarge\control\fewlarge_partialViewing_control_person10.png,mask_img/000000008469.png,experiment,w,w,1038.2531116999453
V3,5,26,Male,Right,190,Block 2,0.8140362000558525,0.05,true,bus,bus,occlusion,control,mask,partial viewing,many small,Stimulus\all_stim\occlusion\partialviewing\manysmall\control\manysmall_partialViewing_control_bus9.png,mask_img/000000037864.png,experiment,u,u,1039.8287766999565
V3,5,26,Male,Right,191,Block 2,0.7877589999698102,0.05,true,bus,bus,occlusion,high,mask,partial viewing,few large,Stimulus\all_stim\occlusion\partialviewing\fewlarge\high\fewlarge_partialViewing_high_bus5.png,mask_img/000000015986.png,experiment,u,u,1041.4128461999353
V3,5,26,Male,Right,192,Block 2,1.1110815000720322,0.05,true,cat,cat,occlusion,control,mask,partial viewing,few large,Stimulus\all_stim\occlusion\partialviewing\fewlarge\control\fewlarge_partialViewing_control_cat10.png,mask_img/000000006481.png,experiment,o,o,1043.540965000051
V3,5,26,Male,Right,193,Block 2,0.7638256999198347,0.1,true,cat,cat,occlusion,control,mask,partial viewing,many small,Stimulus\all_stim\occlusion\partialviewing\manysmall\control\manysmall_partialViewing_control_cat7.png,mask_img/000000038798.png,experiment,o,o,1045.148633499979
V3,5,26,Male,Right,194,Block 2,0.9336271999636665,0.025,true,bird,bird,occlusion,high,mask,partial viewing,few large,Stimulus\all_stim\occlusion\partialviewing\fewlarge\high\fewlarge_partialViewing_high_bird5.png,mask_img/000000013914.png,experiment,e,e,1046.7728509999579
V3,5,26,Male,Right,195,Block 2,0.8519066000590101,0.1,true,cat,cat,occlusion,control,mask,partial viewing,many small,Stimulus\all_stim\occlusion\partialviewing\manysmall\control\manysmall_partialViewing_control_cat1.png,mask_img/000000038177.png,experiment,o,o,1048.460805800045
V3,5,26,Male,Right,196,Block 2,0.76953729998786,0.1,true,person,person,occlusion,control,mask,partial viewing,few large,Stimulus\all_stim\occlusion\partialviewing\fewlarge\control\fewlarge_partialViewing_control_person10.png,mask_img/000000008469.png,experiment,w,w,1050.292849099962
V3,5,26,Male,Right,197,Block 2,1.1715198999736458,0.025,false,banana,person,occlusion,low,mask,partial viewing,few large,Stimulus\all_stim\occlusion\partialviewing\fewlarge\low\fewlarge_partialViewing_low_banana9.png,mask_img/000000023967.png,experiment,w,q,1052.1650373999728
V3,5,26,Male,Right,198,Block 2,0.8015190000878647,0.1,true,bus,bus,occlusion,low,mask,partial viewing,few large,Stimulus\all_stim\occlusion\partialviewing\fewlarge\low\fewlarge_partialViewing_low_bus3.png,mask_img/000000025997.png,experiment,u,u,1053.844930900028
V3,5,26,Male,Right,199,Block 2,0.7420639999909326,0.1,true,cat,cat,occlusion,control,mask,partial viewing,many small,Stimulus\all_stim\occlusion\partialviewing\manysmall\control\manysmall_partialViewing_control_cat3.png,mask_img/000000038381.png,experiment,o,o,1055.469375399989
V3,5,26,Male,Right,200,Block 2,0.7880343999713659,0.1,true,bus,bus,occlusion,control,mask,partial viewing,many small,Stimulus\all_stim\occlusion\partialviewing\manysmall\control\manysmall_partialViewing_control_bus3.png,mask_img/000000036765.png,experiment,u,u,1056.9487791999709
V3,5,26,Male,Right,201,Block 2,0.7682828999822959,0.025,true,firehydrant,firehydrant,occlusion,low,mask,partial viewing,many small,Stimulus\all_stim\occlusion\partialviewing\manysmall\low\manysmall_partialViewing_low_firehydrant5.png,mask_img/000000060623.png,experiment,p,p,1058.8290002000285
V3,5,26,Male,Right,202,Block 2,0.9574876000406221,0.05,true,bus,bus,occlusion,low,mask,partial viewing,few large,Stimulus\all_stim\occlusion\partialviewing\fewlarge\low\fewlarge_partialViewing_low_bus2.png,mask_img/000000025858.png,experiment,u,u,1060.9408058000263
V3,5,26,Male,Right,203,Block 2,0.8408635000232607,0.025,true,cat,cat,occlusion,control,mask,partial viewing,many small,Stimulus\all_stim\occlusion\partialviewing\manysmall\control\manysmall_partialViewing_control_cat8.png,mask_img/000000038817.png,experiment,o,o,1062.4927700000117
V3,5,26,Male,Right,204,Block 2,1.3365006999811158,0.1,true,bird,bird,occlusion,control,mask,partial viewing,few large,Stimulus\all_stim\occlusion\partialviewing\fewlarge\control\fewlarge_partialViewing_control_bird1.png,mask_img/000000000873.png,experiment,e,e,1064.684897899977
V3,5,26,Male,Right,205,Block 2,0.9312287999782711,0.1,true,building,building,occlusion,high,mask,partial viewing,few large,Stimulus\all_stim\occlusion\partialviewing\fewlarge\high\fewlarge_partialViewing_high_building4.png,mask_img/000000014592.png,experiment,r,r,1066.5971568999812
V3,5,26,Male,Right,206,Block 2,0.8718885999405757,0.05,false,cat,person,occlusion,high,mask,partial viewing,few large,Stimulus\all_stim\occlusion\partialviewing\fewlarge\high\fewlarge_partialViewing_high_cat7.png,mask_img/000000017580.png,experiment,w,o,1068.6046657999977
V3,5,26,Male,Right,207,Block 2,0.7838206000160426,0.025,true,bus,bus,occlusion,high,mask,partial viewing,many small,Stimulus\all_stim\occlusion\partialviewing\manysmall\high\manysmall_partialViewing_high_bus6.png,mask_img/000000047407.png,experiment,u,u,1070.1894963999512
V3,5,26,Male,Right,208,Block 2,0.7052087000338361,0.05,true,bus,bus,occlusion,control,mask,partial viewing,many small,Stimulus\all_stim\occlusion\partialviewing\manysmall\control\manysmall_partialViewing_control_bus8.png,mask_img/000000037782.png,experiment,u,u,1071.8689610000001
V3,5,26,Male,Right,209,Block 2,0.8539626999991015,0.025,true,person,person,occlusion,high,mask,partial viewing,many small,Stimulus\all_stim\occlusion\partialviewing\manysmall\high\manysmall_partialViewing_high_person5.png,mask_img/000000052250.png,experiment,w,w,1073.8130032999907
V3,5,26,Male,Right,210,Block 2,0.6710312999784946,0.05,true,bus,bus,occlusion,low,mask,partial viewing,many small,Stimulus\all_stim\occlusion\partialviewing\manysmall\low\manysmall_partialViewing_low_bus10.png,mask_img/000000058595.png,experiment,u,u,1075.4393265999388
V3,5,26,Male,Right,211,Block 2,1.311666600056924,0.1,true,bird,bird,occlusion,control,mask,partial viewing,few large,Stimulus\all_stim\occlusion\partialviewing\fewlarge\control\fewlarge_partialViewing_control_bird8.png,mask_img/000000002822.png,experiment,e,e,1077.492987900041
V3,5,26,Male,Right,212,Block 2,0.7864421000704169,0.025,true,person,person,occlusion,control,mask,partial viewing,many small,Stimulus\all_stim\occlusion\partialviewing\manysmall\control\manysmall_partialViewing_control_person4.png,mask_img/000000040042.png,experiment,w,w,1079.3089373999974
V3,5,26,Male,Right,213,Block 2,1.3719859999837354,0.1,true,cat,cat,occlusion,low,mask,partial viewing,many small,Stimulus\all_stim\occlusion\partialviewing\manysmall\low\manysmall_partialViewing_low_cat4.png,mask_img/000000059483.png,experiment,o,o,1081.5328824999742
V3,5,26,Male,Right,214,Block 2,0.8867346999468282,0.05,true,bus,bus,occlusion,control,mask,partial viewing,many small,Stimulus\all_stim\occlusion\partialviewing\manysmall\control\manysmall_partialViewing_control_bus2.png,mask_img/000000036622.png,experiment,u,u,1083.1168529000133
V3,5,26,Male,Right,215,Block 2,0.7109000999480486,0.05,true,bus,bus,occlusion,control,mask,partial viewing,few large,Stimulus\all_stim\occlusion\partialviewing\fewlarge\control\fewlarge_partialViewing_control_bus2.png,mask_img/000000005359.png,experiment,u,u,1084.8450381000293
V3,5,26,Male,Right,216,Block 2,0.7368329999735579,0.05,true,banana,banana,occlusion,low,mask,partial viewing,few large,Stimulus\all_stim\occlusion\partialviewing\fewlarge\low\fewlarge_partialViewing_low_banana7.png,mask_img/000000023511.png,experiment,q,q,1086.3090404999675
V3,5,26,Male,Right,217,Block 2,1.2153117000125349,0.1,true,building,building,occlusion,low,mask,partial viewing,few large,Stimulus\all_stim\occlusion\partialviewing\fewlarge\low\fewlarge_partialViewing_low_building4.png,mask_img/000000024912.png,experiment,r,r,1088.2131634999532
V3,5,26,Male,Right,218,Block 2,0.8435464000795037,0.05,true,bird,bird,occlusion,control,mask,partial viewing,many small,Stimulus\all_stim\occlusion\partialviewing\manysmall\control\manysmall_partialViewing_control_bird3.png,mask_img/000000034570.png,experiment,e,e,1090.061141400016
V3,5,26,Male,Right,219,Block 2,1.2350559000624344,0.05,true,bird,bird,occlusion,low,mask,partial viewing,many small,Stimulus\all_stim\occlusion\partialviewing\manysmall\low\manysmall_partialViewing_low_bird2.png,mask_img/000000055737.png,experiment,e,e,1092.1090932999505
V3,5,26,Male,Right,220,Block 2,1.417713199974969,0.025,false,person,bird,occlusion,high,mask,partial viewing,many small,Stimulus\all_stim\occlusion\partialviewing\manysmall\high\manysmall_partialViewing_high_person9.png,mask_img/000000052619.png,experiment,e,w,1094.5810083999531
V3,5,26,Male,Right,221,Block 2,0.8341555000515655,0.025,true,building,building,occlusion,high,mask,partial viewing,many small,Stimulus\all_stim\occlusion\partialviewing\manysmall\high\manysmall_partialViewing_high_building9.png,mask_img/000000046345.png,experiment,r,r,1096.4050607000245
V3,5,26,Male,Right,222,Block 2,0.9316143000032753,0.05,true,cat,cat,occlusion,high,mask,partial viewing,few large,Stimulus\all_stim\occlusion\partialviewing\fewlarge\high\fewlarge_partialViewing_high_cat1.png,mask_img/000000017183.png,experiment,o,o,1098.4453629000345
V3,5,26,Male,Right,223,Block 2,0.9101420999504626,0.025,true,bird,bird,occlusion,high,mask,partial viewing,few large,Stimulus\all_stim\occlusion\partialviewing\fewlarge\high\fewlarge_partialViewing_high_bird9.png,mask_img/000000014175.png,experiment,e,e,1100.4767848999472
V3,5,26,Male,Right,224,Block 2,0.8689466000068933,0.05,true,building,building,occlusion,low,mask,partial viewing,few large,Stimulus\all_stim\occlusion\partialviewing\fewlarge\low\fewlarge_partialViewing_low_building7.png,mask_img/000000025192.png,experiment,r,r,1102.4209021000424
V3,5,26,Male,Right,225,Block 2,0.8522700000321493,0.025,true,tree,tree,occlusion,high,mask,partial viewing,few large,Stimulus\all_stim\occlusion\partialviewing\fewlarge\high\fewlarge_partialViewing_high_tree8.png,mask_img/000000022355.png,experiment,i,i,1104.4288214000408
V3,5,26,Male,Right,226,Block 2,0.8895490999566391,0.025,true,bus,bus,occlusion,low,mask,partial viewing,many small,Stimulus\all_stim\occlusion\partialviewing\manysmall\low\manysmall_partialViewing_low_bus10.png,mask_img/000000058595.png,experiment,u,u,1106.1807957999408
V3,5,26,Male,Right,227,Block 2,0.8509831000119448,0.025,true,bird,bird,occlusion,low,mask,partial viewing,many small,Stimulus\all_stim\occlusion\partialviewing\manysmall\low\manysmall_partialViewing_low_bird3.png,mask_img/000000055849.png,experiment,e,e,1107.7329549000133
V3,5,26,Male,Right,228,Block 2,0.7833719999762252,0.1,true,tree,tree,occlusion,control,mask,partial viewing,few large,Stimulus\all_stim\occlusion\partialviewing\fewlarge\control\fewlarge_partialViewing_control_tree5.png,mask_img/000000010991.png,experiment,i,i,1109.2769127000356
V3,5,26,Male,Right,229,Block 2,2.1869874000549316,0.1,true,building,building,occlusion,high,mask,partial viewing,many small,Stimulus\all_stim\occlusion\partialviewing\manysmall\high\manysmall_partialViewing_high_building10.png,mask_img/000000044989.png,experiment,r,r,1112.6129188999766
V3,5,26,Male,Right,230,Block 2,0.8161814000923187,0.025,true,person,person,occlusion,control,mask,partial viewing,many small,Stimulus\all_stim\occlusion\partialviewing\manysmall\control\manysmall_partialViewing_control_person8.png,mask_img/000000040466.png,experiment,w,w,1114.5974817000097
V3,5,26,Male,Right,231,Block 2,0.8989849000936374,0.025,true,cat,cat,occlusion,low,mask,partial viewing,few large,Stimulus\all_stim\occlusion\partialviewing\fewlarge\low\fewlarge_partialViewing_low_cat1.png,mask_img/000000027151.png,experiment,o,o,1116.476891899947
V3,5,26,Male,Right,232,Block 2,1.1948651999700814,0.05,false,tree,bus,occlusion,low,mask,partial viewing,many small,Stimulus\all_stim\occlusion\partialviewing\manysmall\low\manysmall_partialViewing_low_tree1.png,mask_img/000000062690.png,experiment,u,i,1118.4448101000162
V3,5,26,Male,Right,233,Block 2,1.5533750000176951,0.025,true,bird,bird,occlusion,high,mask,partial viewing,few large,Stimulus\all_stim\occlusion\partialviewing\fewlarge\high\fewlarge_partialViewing_high_bird7.png,mask_img/000000013949.png,experiment,e,e,1120.7417976999423
V3,5,26,Male,Right,234,Block 2,0.8332977000391111,0.025,true,firehydrant,firehydrant,occlusion,low,mask,partial viewing,few large,Stimulus\all_stim\occlusion\partialviewing\fewlarge\low\fewlarge_partialViewing_low_firehydrant2.png,mask_img/000000028517.png,experiment,p,p,1122.3330544000491
V3,5,26,Male,Right,235,Block 2,0.9247574999462813,0.05,true,banana,banana,occlusion,high,mask,partial viewing,many small,Stimulus\all_stim\occlusion\partialviewing\manysmall\high\manysmall_partialViewing_high_banana4.png,mask_img/000000042499.png,experiment,q,q,1124.037095900043
V3,5,26,Male,Right,236,Block 2,0.8130095999222249,0.1,true,bird,bird,occlusion,control,mask,partial viewing,many small,Stimulus\all_stim\occlusion\partialviewing\manysmall\control\manysmall_partialViewing_control_bird3.png,mask_img/000000034570.png,experiment,e,e,1125.637013999978
V3,5,26,Male,Right,237,Block 2,0.7468268000520766,0.025,true,firehydrant,firehydrant,occlusion,low,mask,partial viewing,few large,Stimulus\all_stim\occlusion\partialviewing\fewlarge\low\fewlarge_partialViewing_low_firehydrant8.png,mask_img/000000028988.png,experiment,p,p,1127.3409436999355
V3,5,26,Male,Right,238,Block 2,0.9396295000333339,0.05,false,bird,person,occlusion,high,mask,partial viewing,few large,Stimulus\all_stim\occlusion\partialviewing\fewlarge\high\fewlarge_partialViewing_high_bird10.png,mask_img/000000013127.png,experiment,w,e,1129.3167989000212
V3,5,26,Male,Right,239,Block 2,0.7870178000302985,0.1,true,tree,tree,occlusion,control,mask,partial viewing,many small,Stimulus\all_stim\occlusion\partialviewing\manysmall\control\manysmall_partialViewing_control_tree8.png,mask_img/000000041577.png,experiment,i,i,1131.1008078999585
V3,5,26,Male,Right,240,Block 2,0.880719699896872,0.1,true,person,person,occlusion,control,mask,partial viewing,many small,Stimulus\all_stim\occlusion\partialviewing\manysmall\control\manysmall_partialViewing_control_person8.png,mask_img/000000040466.png,experiment,w,w,1133.1648315000348
V3,5,26,Male,Right,241,Block 2,0.784597400110215,0.025,true,person,person,occlusion,control,mask,partial viewing,many small,Stimulus\all_stim\occlusion\partialviewing\manysmall\control\manysmall_partialViewing_control_person6.png,mask_img/000000040325.png,experiment,w,w,1135.0048768999986
V3,5,26,Male,Right,242,Block 2,0.7212401999859139,0.05,true,banana,banana,occlusion,control,mask,partial viewing,few large,Stimulus\all_stim\occlusion\partialviewing\fewlarge\control\fewlarge_partialViewing_control_banana10.png,mask_img/000000000109.png,experiment,q,q,1136.8768947999924
V3,5,26,Male,Right,243,Block 2,0.8226346999872476,0.1,true,building,building,occlusion,low,mask,partial viewing,few large,Stimulus\all_stim\occlusion\partialviewing\fewlarge\low\fewlarge_partialViewing_low_building5.png,mask_img/000000025034.png,experiment,r,r,1138.6208695999812
V3,5,26,Male,Right,244,Block 2,0.7894928000168875,0.1,true,building,building,occlusion,low,mask,partial viewing,few large,Stimulus\all_stim\occlusion\partialviewing\fewlarge\low\fewlarge_partialViewing_low_building10.png,mask_img/000000024591.png,experiment,r,r,1140.3807686000364
V3,5,26,Male,Right,245,Block 2,0.7929289001040161,0.025,true,cat,cat,occlusion,low,mask,partial viewing,few large,Stimulus\all_stim\occlusion\partialviewing\fewlarge\low\fewlarge_partialViewing_low_cat10.png,mask_img/000000027319.png,experiment,o,o,1141.9808175000362
V3,5,26,Male,Right,246,Block 2,0.784756200038828,0.05,true,building,building,occlusion,control,mask,partial viewing,many small,Stimulus\all_stim\occlusion\partialviewing\manysmall\control\manysmall_partialViewing_control_building6.png,mask_img/000000036006.png,experiment,r,r,1143.45302669995
V3,5,26,Male,Right,247,Block 2,0.6955164999235421,0.1,true,banana,banana,occlusion,control,mask,partial viewing,many small,Stimulus\all_stim\occlusion\partialviewing\manysmall\control\manysmall_partialViewing_control_banana10.png,mask_img/000000033074.png,experiment,q,q,1145.3091810999904
V3,5,26,Male,Right,248,Block 2,0.7600699999602512,0.1,true,banana,banana,occlusion,high,mask,partial viewing,many small,Stimulus\all_stim\occlusion\partialviewing\manysmall\high\manysmall_partialViewing_high_banana4.png,mask_img/000000042499.png,experiment,q,q,1146.8370050999802
V3,5,26,Male,Right,249,Block 2,0.7481647999957204,0.1,true,bus,bus,occlusion,high,mask,partial viewing,few large,Stimulus\all_stim\occlusion\partialviewing\fewlarge\high\fewlarge_partialViewing_high_bus6.png,mask_img/000000015987.png,experiment,u,u,1148.4290524999378
V3,5,26,Male,Right,250,Block 2,0.7706145000411198,0.05,true,building,building,occlusion,high,mask,partial viewing,many small,Stimulus\all_stim\occlusion\partialviewing\manysmall\high\manysmall_partialViewing_high_building9.png,mask_img/000000046345.png,experiment,r,r,1149.9889537999406
V3,5,26,Male,Right,251,Block 2,0.7184621000196785,0.05,true,firehydrant,firehydrant,occlusion,low,mask,partial viewing,few large,Stimulus\all_stim\occlusion\partialviewing\fewlarge\low\fewlarge_partialViewing_low_firehydrant7.png,mask_img/000000028885.png,experiment,p,p,1151.5569941999856
V3,5,26,Male,Right,252,Block 2,0.7809079999569803,0.1,true,cat,cat,occlusion,low,mask,partial viewing,few large,Stimulus\all_stim\occlusion\partialviewing\fewlarge\low\fewlarge_partialViewing_low_cat10.png,mask_img/000000027319.png,experiment,o,o,1153.052882399992
V3,5,26,Male,Right,253,Block 2,0.755195299978368,0.1,true,banana,banana,occlusion,high,mask,partial viewing,few large,Stimulus\all_stim\occlusion\partialviewing\fewlarge\high\fewlarge_partialViewing_high_banana10.png,mask_img/000000012178.png,experiment,q,q,1154.8373130999971
V3,5,26,Male,Right,254,Block 2,0.6882466999813914,0.025,true,building,building,occlusion,high,mask,partial viewing,many small,Stimulus\all_stim\occlusion\partialviewing\manysmall\high\manysmall_partialViewing_high_building1.png,mask_img/000000044950.png,experiment,r,r,1156.66091830004
V3,5,26,Male,Right,255,Block 2,0.9206047999905422,0.05,true,tree,tree,occlusion,high,mask,partial viewing,few large,Stimulus\all_stim\occlusion\partialviewing\fewlarge\high\fewlarge_partialViewing_high_tree6.png,mask_img/000000022142.png,experiment,i,i,1158.6929371999577
V3,5,26,Male,Right,256,Block 2,0.7761197999352589,0.1,false,cat,banana,occlusion,high,mask,partial viewing,many small,Stimulus\all_stim\occlusion\partialviewing\manysmall\high\manysmall_partialViewing_high_cat9.png,mask_img/000000049933.png,experiment,q,o,1160.2053946999367
V3,5,26,Male,Right,257,Block 2,0.7962761999806389,0.05,true,person,person,occlusion,high,mask,partial viewing,few large,Stimulus\all_stim\occlusion\partialviewing\fewlarge\high\fewlarge_partialViewing_high_person1.png,mask_img/000000019759.png,experiment,w,w,1161.940983699984
V3,5,26,Male,Right,258,Block 2,0.7293613000074401,0.1,true,bus,bus,occlusion,high,mask,partial viewing,few large,Stimulus\all_stim\occlusion\partialviewing\fewlarge\high\fewlarge_partialViewing_high_bus9.png,mask_img/000000016764.png,experiment,u,u,1163.5089157000184
V3,5,26,Male,Right,259,Block 2,0.7099873999832198,0.025,true,cat,cat,occlusion,high,mask,partial viewing,few large,Stimulus\all_stim\occlusion\partialviewing\fewlarge\high\fewlarge_partialViewing_high_cat6.png,mask_img/000000017476.png,experiment,o,o,1165.0128812999465
V3,5,26,Male,Right,260,Block 2,1.0814070999622345,0.025,true,cat,cat,occlusion,control,mask,partial viewing,many small,Stimulus\all_stim\occlusion\partialviewing\manysmall\control\manysmall_partialViewing_control_cat4.png,mask_img/000000038479.png,experiment,o,o,1166.8928460000316
V3,5,26,Male,Right,261,Block 2,0.8738779999548569,0.05,true,person,person,occlusion,high,mask,partial viewing,few large,Stimulus\all_stim\occlusion\partialviewing\fewlarge\high\fewlarge_partialViewing_high_person7.png,mask_img/000000020421.png,experiment,w,w,1168.6981699999887
V3,5,26,Male,Right,262,Block 2,0.7770085000665858,0.1,true,banana,banana,occlusion,control,mask,partial viewing,many small,Stimulus\all_stim\occlusion\partialviewing\manysmall\control\manysmall_partialViewing_control_banana2.png,mask_img/000000033126.png,experiment,q,q,1170.5809025999624
V3,5,26,Male,Right,263,Block 2,0.7596960000228137,0.05,true,cat,cat,occlusion,low,mask,partial viewing,few large,Stimulus\all_stim\occlusion\partialviewing\fewlarge\low\fewlarge_partialViewing_low_cat9.png,mask_img/000000028231.png,experiment,o,o,1172.460885999957
V3,5,26,Male,Right,264,Block 2,0.9057132999878377,0.1,false,tree,bus,occlusion,high,mask,partial viewing,many small,Stimulus\all_stim\occlusion\partialviewing\manysmall\high\manysmall_partialViewing_high_tree2.png,mask_img/000000052901.png,experiment,u,i,1174.4128248000052
V3,5,26,Male,Right,265,Block 2,0.8754940000362694,0.05,true,cat,cat,occlusion,control,mask,partial viewing,few large,Stimulus\all_stim\occlusion\partialviewing\fewlarge\control\fewlarge_partialViewing_control_cat1.png,mask_img/000000006437.png,experiment,o,o,1175.9969787000446
V3,5,26,Male,Right,266,Block 2,1.3510815999470651,0.025,true,banana,banana,occlusion,control,mask,partial viewing,few large,Stimulus\all_stim\occlusion\partialviewing\fewlarge\control\fewlarge_partialViewing_control_banana9.png,mask_img/000000000731.png,experiment,q,q,1178.2611829999369
V3,5,26,Male,Right,267,Block 2,0.846230800030753,0.1,true,cat,cat,occlusion,high,mask,partial viewing,few large,Stimulus\all_stim\occlusion\partialviewing\fewlarge\high\fewlarge_partialViewing_high_cat9.png,mask_img/000000017858.png,experiment,o,o,1180.085219200002
V3,5,26,Male,Right,268,Block 2,0.772603299934417,0.025,true,cat,cat,occlusion,control,mask,partial viewing,many small,Stimulus\all_stim\occlusion\partialviewing\manysmall\control\manysmall_partialViewing_control_cat3.png,mask_img/000000038381.png,experiment,o,o,1182.0288586999523
V3,5,26,Male,Right,269,Block 2,0.7147466000169516,0.025,true,bus,bus,occlusion,low,mask,partial viewing,few large,Stimulus\all_stim\occlusion\partialviewing\fewlarge\low\fewlarge_partialViewing_low_bus6.png,mask_img/000000026503.png,experiment,u,u,1183.8290681999642
V3,5,26,Male,Right,270,Block 2,0.7826730000087991,0.1,true,tree,tree,occlusion,high,mask,partial viewing,few large,Stimulus\all_stim\occlusion\partialviewing\fewlarge\high\fewlarge_partialViewing_high_tree3.png,mask_img/000000021942.png,experiment,i,i,1185.3009886000073
V3,5,26,Male,Right,271,Block 2,0.8205865999916568,0.025,true,person,person,occlusion,control,mask,partial viewing,many small,Stimulus\all_stim\occlusion\partialviewing\manysmall\control\manysmall_partialViewing_control_person2.png,mask_img/000000039971.png,experiment,w,w,1186.925028800033
V3,5,26,Male,Right,272,Block 2,0.93604410008993,0.1,false,bird,person,occlusion,high,mask,partial viewing,many small,Stimulus\all_stim\occlusion\partialviewing\manysmall\high\manysmall_partialViewing_high_bird10.png,mask_img/000000044065.png,experiment,w,e,1188.6931417000014
V3,5,26,Male,Right,273,Block 2,0.8612882999004796,0.025,true,cat,cat,occlusion,control,mask,partial viewing,many small,Stimulus\all_stim\occlusion\partialviewing\manysmall\control\manysmall_partialViewing_control_cat10.png,mask_img/000000038178.png,experiment,o,o,1190.5089516999433
V3,5,26,Male,Right,274,Block 2,1.076653499971144,0.025,false,bird,tree,occlusion,low,mask,partial viewing,many small,Stimulus\all_stim\occlusion\partialviewing\manysmall\low\manysmall_partialViewing_low_bird5.png,mask_img/000000055942.png,experiment,i,e,1192.6134534999728
V3,5,26,Male,Right,275,Block 2,0.9972065000329167,0.1,false,bird,person,occlusion,high,mask,partial viewing,few large,Stimulus\all_stim\occlusion\partialviewing\fewlarge\high\fewlarge_partialViewing_high_bird4.png,mask_img/000000013721.png,experiment,w,e,1194.764990799944
V3,5,26,Male,Right,276,Block 2,0.7878469999413937,0.05,true,building,building,occlusion,low,mask,partial viewing,many small,Stimulus\all_stim\occlusion\partialviewing\manysmall\low\manysmall_partialViewing_low_building1.png,mask_img/000000056716.png,experiment,r,r,1196.4049160999712
V3,5,26,Male,Right,277,Block 2,0.8384519000537694,0.05,true,bus,bus,occlusion,low,mask,partial viewing,many small,Stimulus\all_stim\occlusion\partialviewing\manysmall\low\manysmall_partialViewing_low_bus9.png,mask_img/000000058910.png,experiment,u,u,1198.0369395000162
V3,5,26,Male,Right,278,Block 2,0.8623412000015378,0.05,true,bus,bus,occlusion,low,mask,partial viewing,many small,Stimulus\all_stim\occlusion\partialviewing\manysmall\low\manysmall_partialViewing_low_bus3.png,mask_img/000000058647.png,experiment,u,u,1199.6530515999766
V3,5,26,Male,Right,279,Block 2,0.736858700052835,0.05,true,bus,bus,occlusion,low,mask,partial viewing,many small,Stimulus\all_stim\occlusion\partialviewing\manysmall\low\manysmall_partialViewing_low_bus2.png,mask_img/000000058627.png,experiment,u,u,1201.1410308999475
V3,5,26,Male,Right,280,Block 2,0.6680648000910878,0.05,true,building,building,occlusion,control,mask,partial viewing,few large,Stimulus\all_stim\occlusion\partialviewing\fewlarge\control\fewlarge_partialViewing_control_building1.png,mask_img/000000003084.png,experiment,r,r,1202.9514455000171
V3,5,26,Male,Right,281,Block 2,0.7418749999487773,0.05,true,firehydrant,firehydrant,occlusion,low,mask,partial viewing,few large,Stimulus\all_stim\occlusion\partialviewing\fewlarge\low\fewlarge_partialViewing_low_firehydrant2.png,mask_img/000000028517.png,experiment,p,p,1204.5889680000255
V3,5,26,Male,Right,282,Block 2,0.7482165999244899,0.1,true,bus,bus,occlusion,low,mask,partial viewing,many small,Stimulus\all_stim\occlusion\partialviewing\manysmall\low\manysmall_partialViewing_low_bus6.png,mask_img/000000058815.png,experiment,u,u,1206.3811299999943
V3,5,26,Male,Right,283,Block 2,0.69576509995386,0.1,true,firehydrant,firehydrant,occlusion,control,mask,partial viewing,few large,Stimulus\all_stim\occlusion\partialviewing\fewlarge\control\fewlarge_partialViewing_control_firehydrant3.png,mask_img/000000007946.png,experiment,p,p,1207.9648997000186
V3,5,26,Male,Right,284,Block 2,0.7553019999759272,0.025,true,person,person,occlusion,low,mask,partial viewing,few large,Stimulus\all_stim\occlusion\partialviewing\fewlarge\low\fewlarge_partialViewing_low_person4.png,mask_img/000000029730.png,experiment,w,w,1209.6210155000445
V3,5,26,Male,Right,285,Block 2,0.7017479999922216,0.05,true,banana,banana,occlusion,control,mask,partial viewing,many small,Stimulus\all_stim\occlusion\partialviewing\manysmall\control\manysmall_partialViewing_control_banana7.png,mask_img/000000033861.png,experiment,q,q,1211.0769962000195
V3,5,26,Male,Right,286,Block 2,0.7172287999419495,0.1,true,firehydrant,firehydrant,occlusion,low,mask,partial viewing,many small,Stimulus\all_stim\occlusion\partialviewing\manysmall\low\manysmall_partialViewing_low_firehydrant5.png,mask_img/000000060623.png,experiment,p,p,1212.860996000003
V3,5,26,Male,Right,287,Block 2,1.2639500999357551,0.1,true,bird,bird,occlusion,high,mask,partial viewing,few large,Stimulus\all_stim\occlusion\partialviewing\fewlarge\high\fewlarge_partialViewing_high_bird9.png,mask_img/000000014175.png,experiment,e,e,1215.14102119999
V3,5,26,Male,Right,288,Block 2,0.8707452999660745,0.025,true,person,person,occlusion,low,mask,partial viewing,many small,Stimulus\all_stim\occlusion\partialviewing\manysmall\low\manysmall_partialViewing_low_person8.png,mask_img/000000062420.png,experiment,w,w,1235.7172417000402
V3,5,26,Male,Right,289,Block 3,0.9321711999364197,0.05,true,bird,bird,occlusion,high,mask,partial viewing,few large,Stimulus\all_stim\occlusion\partialviewing\fewlarge\high\fewlarge_partialViewing_high_bird5.png,mask_img/000000013914.png,experiment,e,e,1237.7652089999756
V3,5,26,Male,Right,290,Block 3,1.2411850000498816,0.05,false,cat,bird,occlusion,high,mask,partial viewing,many small,Stimulus\all_stim\occlusion\partialviewing\manysmall\high\manysmall_partialViewing_high_cat6.png,mask_img/000000049562.png,experiment,e,o,1239.7812320999801
V3,5,26,Male,Right,291,Block 3,0.684141599922441,0.025,true,bus,bus,occlusion,control,mask,partial viewing,many small,Stimulus\all_stim\occlusion\partialviewing\manysmall\control\manysmall_partialViewing_control_bus6.png,mask_img/000000037174.png,experiment,u,u,1241.2769759999355
V3,5,26,Male,Right,292,Block 3,0.9198735000099987,0.025,false,bird,person,occlusion,low,mask,partial viewing,many small,Stimulus\all_stim\occlusion\partialviewing\manysmall\low\manysmall_partialViewing_low_bird6.png,mask_img/000000056007.png,experiment,w,e,1243.21298880002
V3,5,26,Male,Right,293,Block 3,1.5233400999568403,0.05,true,bird,bird,occlusion,control,mask,partial viewing,many small,Stimulus\all_stim\occlusion\partialviewing\manysmall\control\manysmall_partialViewing_control_bird6.png,mask_img/000000034993.png,experiment,e,e,1245.6450277999975
V3,5,26,Male,Right,294,Block 3,1.2495982000837103,0.1,false,person,tree,occlusion,high,mask,partial viewing,many small,Stimulus\all_stim\occlusion\partialviewing\manysmall\high\manysmall_partialViewing_high_person3.png,mask_img/000000051880.png,experiment,i,w,1247.7091832000297
V3,5,26,Male,Right,295,Block 3,1.1009334999835119,0.025,true,cat,cat,occlusion,low,mask,partial viewing,many small,Stimulus\all_stim\occlusion\partialviewing\manysmall\low\manysmall_partialViewing_low_cat4.png,mask_img/000000059483.png,experiment,o,o,1249.6051204999676
V3,5,26,Male,Right,296,Block 3,0.9353905000025406,0.1,false,firehydrant,person,occlusion,low,mask,partial viewing,many small,Stimulus\all_stim\occlusion\partialviewing\manysmall\low\manysmall_partialViewing_low_firehydrant1.png,mask_img/000000060464.png,experiment,w,p,1251.6371081999969
V3,5,26,Male,Right,297,Block 3,0.7210129000013694,0.1,true,cat,cat,occlusion,low,mask,partial viewing,few large,Stimulus\all_stim\occlusion\partialviewing\fewlarge\low\fewlarge_partialViewing_low_cat1.png,mask_img/000000027151.png,experiment,o,o,1253.2931718999753
V3,5,26,Male,Right,298,Block 3,0.9562550000846386,0.025,false,firehydrant,person,occlusion,low,mask,partial viewing,many small,Stimulus\all_stim\occlusion\partialviewing\manysmall\low\manysmall_partialViewing_low_firehydrant4.png,mask_img/000000060610.png,experiment,w,p,1255.3571539999684
V3,5,26,Male,Right,299,Block 3,0.6391473999246955,0.025,true,person,person,occlusion,control,mask,partial viewing,few large,Stimulus\all_stim\occlusion\partialviewing\fewlarge\control\fewlarge_partialViewing_control_person3.png,mask_img/000000008920.png,experiment,w,w,1257.0450190999545
V3,5,26,Male,Right,300,Block 3,1.0168923999881372,0.05,true,bird,bird,occlusion,low,mask,partial viewing,few large,Stimulus\all_stim\occlusion\partialviewing\fewlarge\low\fewlarge_partialViewing_low_bird7.png,mask_img/000000024403.png,experiment,e,e,1258.8050008999417
V3,5,26,Male,Right,301,Block 3,0.7265464999945834,0.025,true,firehydrant,firehydrant,occlusion,control,mask,partial viewing,many small,Stimulus\all_stim\occlusion\partialviewing\manysmall\control\manysmall_partialViewing_control_firehydrant1.png,mask_img/000000039012.png,experiment,p,p,1260.493152800016
V3,5,26,Male,Right,302,Block 3,0.9716822999762371,0.05,true,bus,bus,occlusion,high,mask,partial viewing,many small,Stimulus\all_stim\occlusion\partialviewing\manysmall\high\manysmall_partialViewing_high_bus7.png,mask_img/000000047471.png,experiment,u,u,1262.565220999997
V3,5,26,Male,Right,303,Block 3,0.7185373000102118,0.025,true,person,person,occlusion,control,mask,partial viewing,few large,Stimulus\all_stim\occlusion\partialviewing\fewlarge\control\fewlarge_partialViewing_control_person1.png,mask_img/000000008341.png,experiment,w,w,1264.3895802999614
V3,5,26,Male,Right,304,Block 3,0.8303452999098226,0.05,true,bird,bird,occlusion,control,mask,partial viewing,many small,Stimulus\all_stim\occlusion\partialviewing\manysmall\control\manysmall_partialViewing_control_bird4.png,mask_img/000000034691.png,experiment,e,e,1266.2218383
V3,5,26,Male,Right,305,Block 3,0.8691399999661371,0.025,true,person,person,occlusion,low,mask,partial viewing,few large,Stimulus\all_stim\occlusion\partialviewing\fewlarge\low\fewlarge_partialViewing_low_person6.png,mask_img/000000030267.png,experiment,w,w,1267.7730383999879
V3,5,26,Male,Right,306,Block 3,0.8342112000100315,0.025,true,building,building,occlusion,low,mask,partial viewing,many small,Stimulus\all_stim\occlusion\partialviewing\manysmall\low\manysmall_partialViewing_low_building9.png,mask_img/000000058102.png,experiment,r,r,1269.7249106999952
V3,5,26,Male,Right,307,Block 3,1.2143108999589458,0.05,false,firehydrant,building,occlusion,high,mask,partial viewing,many small,Stimulus\all_stim\occlusion\partialviewing\manysmall\high\manysmall_partialViewing_high_firehydrant6.png,mask_img/000000050782.png,experiment,r,p,1271.9010984000051
V3,5,26,Male,Right,308,Block 3,0.8358599999919534,0.1,true,tree,tree,occlusion,high,mask,partial viewing,many small,Stimulus\all_stim\occlusion\partialviewing\manysmall\high\manysmall_partialViewing_high_tree1.png,mask_img/000000052784.png,experiment,i,i,1273.7092962999595
V3,5,26,Male,Right,309,Block 3,0.7769795999629423,0.1,true,person,person,occlusion,high,mask,partial viewing,few large,Stimulus\all_stim\occlusion\partialviewing\fewlarge\high\fewlarge_partialViewing_high_person4.png,mask_img/000000020202.png,experiment,w,w,1275.350102999946
V3,5,26,Male,Right,310,Block 3,0.7958367998944595,0.05,true,tree,tree,occlusion,high,mask,partial viewing,few large,Stimulus\all_stim\occlusion\partialviewing\fewlarge\high\fewlarge_partialViewing_high_tree2.png,mask_img/000000021641.png,experiment,i,i,1277.0054806999397
V3,5,26,Male,Right,311,Block 3,1.5099806999787688,0.05,false,banana,building,occlusion,high,mask,partial viewing,many small,Stimulus\all_stim\occlusion\partialviewing\manysmall\high\manysmall_partialViewing_high_banana7.png,mask_img/000000043024.png,experiment,r,q,1279.4691135999747
V3,5,26,Male,Right,312,Block 3,0.7495791999390349,0.1,true,bus,bus,occlusion,control,mask,partial viewing,few large,Stimulus\all_stim\occlusion\partialviewing\fewlarge\control\fewlarge_partialViewing_control_bus5.png,mask_img/000000005615.png,experiment,u,u,1281.205220600008
V3,5,26,Male,Right,313,Block 3,1.0319660999812186,0.1,false,bird,building,occlusion,high,mask,partial viewing,many small,Stimulus\all_stim\occlusion\partialviewing\manysmall\high\manysmall_partialViewing_high_bird1.png,mask_img/000000043966.png,experiment,r,e,1283.0212041999912
V3,5,26,Male,Right,314,Block 3,0.6849584999727085,0.025,true,bus,bus,occlusion,low,mask,partial viewing,many small,Stimulus\all_stim\occlusion\partialviewing\manysmall\low\manysmall_partialViewing_low_bus5.png,mask_img/000000058801.png,experiment,u,u,1284.7811030000448
V3,5,26,Male,Right,315,Block 3,0.7794566999655217,0.025,true,bird,bird,occlusion,control,mask,partial viewing,many small,Stimulus\all_stim\occlusion\partialviewing\manysmall\control\manysmall_partialViewing_control_bird5.png,mask_img/000000034930.png,experiment,e,e,1286.4851152000483
V3,5,26,Male,Right,316,Block 3,0.8089375999988988,0.05,true,bus,bus,occlusion,low,mask,partial viewing,many small,Stimulus\all_stim\occlusion\partialviewing\manysmall\low\manysmall_partialViewing_low_bus6.png,mask_img/000000058815.png,experiment,u,u,1288.1815331999678
V3,5,26,Male,Right,317,Block 3,0.964706499944441,0.05,false,cat,bus,occlusion,low,mask,partial viewing,many small,Stimulus\all_stim\occlusion\partialviewing\manysmall\low\manysmall_partialViewing_low_cat10.png,mask_img/000000059046.png,experiment,u,o,1290.0452280000318
V3,5,26,Male,Right,318,Block 3,0.7355580000439659,0.1,true,banana,banana,occlusion,control,mask,partial viewing,few large,Stimulus\all_stim\occlusion\partialviewing\fewlarge\control\fewlarge_partialViewing_control_banana5.png,mask_img/000000000459.png,experiment,q,q,1291.7489999999525
V3,5,26,Male,Right,319,Block 3,1.1975201000459492,0.05,false,banana,firehydrant,occlusion,high,mask,partial viewing,few large,Stimulus\all_stim\occlusion\partialviewing\fewlarge\high\fewlarge_partialViewing_high_banana8.png,mask_img/000000012733.png,experiment,p,q,1293.8210635000141
V3,5,26,Male,Right,320,Block 3,0.7051223000744358,0.025,true,tree,tree,occlusion,control,mask,partial viewing,many small,Stimulus\all_stim\occlusion\partialviewing\manysmall\control\manysmall_partialViewing_control_tree1.png,mask_img/000000040886.png,experiment,i,i,1295.2130393999396
V3,5,26,Male,Right,321,Block 3,0.8277246999787167,0.05,true,building,building,occlusion,low,mask,partial viewing,many small,Stimulus\all_stim\occlusion\partialviewing\manysmall\low\manysmall_partialViewing_low_building5.png,mask_img/000000057930.png,experiment,r,r,1296.7733230999438
V3,5,26,Male,Right,322,Block 3,1.4828967999201268,0.025,true,building,building,occlusion,low,mask,partial viewing,many small,Stimulus\all_stim\occlusion\partialviewing\manysmall\low\manysmall_partialViewing_low_building7.png,mask_img/000000058021.png,experiment,r,r,1299.3010008999845
V3,5,26,Male,Right,323,Block 3,0.8034920999780297,0.1,true,firehydrant,firehydrant,occlusion,control,mask,partial viewing,many small,Stimulus\all_stim\occlusion\partialviewing\manysmall\control\manysmall_partialViewing_control_firehydrant2.png,mask_img/000000039089.png,experiment,p,p,1300.8132051000139
V3,5,26,Male,Right,324,Block 3,1.0340853000525385,0.025,false,cat,tree,occlusion,high,mask,partial viewing,many small,Stimulus\all_stim\occlusion\partialviewing\manysmall\high\manysmall_partialViewing_high_cat7.png,mask_img/000000049602.png,experiment,i,o,1302.757240899955
V3,5,26,Male,Right,325,Block 3,0.8488356000743806,0.025,true,building,building,occlusion,low,mask,partial viewing,few large,Stimulus\all_stim\occlusion\partialviewing\fewlarge\low\fewlarge_partialViewing_low_building2.png,mask_img/000000024702.png,experiment,r,r,1304.6210058999714
