pt_num,Age,Gender,Handedness,trial_nbr,block_number,rt,soa,acc,category,choiced_category,manipulation,difficulty,mask,type_occl,size_occl,filename,mask_filename,task,pressed_key,correct_key,Experiment Duration
2,22,Female,Right,1,Training,3.2101287999976194,0.1,true,firehydrant,firehydrant,occlusion,low,mask,partial viewing,few large,Training_Stimulus\fewlarge_partialViewing_low_firehydrant205.png,mask_img/000000003225.png,training,r,r,219.98660689999815
2,22,Female,Right,2,Training,3.684049600000435,0.025,false,cat,bird,occlusion,control,mask,partial viewing,few large,Training_Stimulus\fewlarge_partialViewing_control_cat511.png,mask_img/000000000438.png,training,i,o,225.0946069999991
2,22,Female,Right,3,Training,3.0140895000004093,0.025,false,tree,firehydrant,occlusion,high,mask,partial viewing,few large,Training_Stimulus\fewlarge_partialViewing_high_tree25.png,mask_img/000000002197.png,training,r,e,229.55337890000374
2,22,Female,Right,4,Training,3.3611089999976684,0.025,false,person,bird,occlusion,low,mask,partial viewing,many small,Training_Stimulus\manysmall_partialViewing_low_person587.png,mask_img/000000007179.png,training,i,q,234.41457719999744
2,22,Female,Right,5,Training,5.431233499999507,0.025,false,person,bus,occlusion,high,mask,partial viewing,many small,Training_Stimulus\manysmall_partialViewing_high_person475.png,mask_img/000000006153.png,training,p,q,240.942904800002
2,22,Female,Right,6,Training,10.683434500002477,0.025,false,bus,NAN,occlusion,control,mask,partial viewing,few large,Training_Stimulus\fewlarge_partialViewing_control_bus630.png,mask_img/000000000394.png,training,NAN,p,252.7683840000027
2,22,Female,Right,7,Training,2.133219699993788,0.05,false,banana,person,occlusion,low,mask,partial viewing,many small,Training_Stimulus\manysmall_partialViewing_low_banana589.png,mask_img/000000006437.png,training,q,u,256.26820150000276
2,22,Female,Right,8,Training,1.3791774000055739,0.05,true,tree,tree,occlusion,low,mask,partial viewing,many small,Training_Stimulus\manysmall_partialViewing_low_tree25.png,mask_img/000000007325.png,training,e,e,258.99737370000366
2,22,Female,Right,9,Training,2.32290340000327,0.1,false,tree,bird,occlusion,high,mask,partial viewing,many small,Training_Stimulus\manysmall_partialViewing_high_tree25.png,mask_img/000000006263.png,training,i,e,262.64423369999713
2,22,Female,Right,10,Training,3.1884783999994397,0.025,false,cat,banana,occlusion,low,mask,partial viewing,few large,Training_Stimulus\fewlarge_partialViewing_low_cat593.png,mask_img/000000003084.png,training,u,o,267.1479743000018
2,22,Female,Right,11,Training,1.7492053999958443,0.1,false,person,bird,occlusion,low,mask,partial viewing,many small,Training_Stimulus\manysmall_partialViewing_low_person587.png,mask_img/000000007179.png,training,i,q,270.0397024999984
2,22,Female,Right,12,Training,1.801737799993134,0.05,true,firehydrant,firehydrant,occlusion,control,mask,partial viewing,few large,Training_Stimulus\fewlarge_partialViewing_control_firehydrant154.png,mask_img/000000000459.png,training,r,r,272.99354889999813
2,22,Female,Right,13,Training,1.1594210000039311,0.025,true,firehydrant,firehydrant,occlusion,low,mask,partial viewing,few large,Training_Stimulus\fewlarge_partialViewing_low_firehydrant205.png,mask_img/000000003225.png,training,r,r,275.26666049999767
2,22,Female,Right,14,Training,4.015396700000565,0.05,false,cat,bird,occlusion,control,mask,partial viewing,many small,Training_Stimulus\manysmall_partialViewing_control_cat511.png,mask_img/000000005105.png,training,i,o,280.53327620000346
2,22,Female,Right,15,Training,2.2606365000028745,0.025,true,banana,banana,occlusion,control,mask,partial viewing,many small,Training_Stimulus\manysmall_partialViewing_control_banana1022.png,mask_img/000000004239.png,training,u,u,284.1112248999998
2,22,Female,Right,16,Training,1.1757706000062171,0.05,true,person,person,occlusion,control,mask,partial viewing,many small,Training_Stimulus\manysmall_partialViewing_control_person189.png,mask_img/000000005142.png,training,q,q,286.7896089999995
2,22,Female,Right,17,Training,2.1897423999980674,0.05,false,cat,tree,occlusion,low,mask,partial viewing,few large,Training_Stimulus\fewlarge_partialViewing_low_cat593.png,mask_img/000000003084.png,training,e,o,290.25575070000195
2,22,Female,Right,18,Training,1.569405199996254,0.05,false,tree,person,occlusion,high,mask,partial viewing,few large,Training_Stimulus\fewlarge_partialViewing_high_tree25.png,mask_img/000000002197.png,training,q,e,293.3359380999973
2,22,Female,Right,19,Training,2.3178545000046142,0.05,true,tree,tree,occlusion,control,mask,partial viewing,few large,Training_Stimulus\fewlarge_partialViewing_control_tree17.png,mask_img/000000000626.png,training,e,e,297.07860710000386
2,22,Female,Right,20,Training,5.032004700005928,0.1,false,banana,firehydrant,occlusion,control,mask,partial viewing,many small,Training_Stimulus\manysmall_partialViewing_control_banana1022.png,mask_img/000000004239.png,training,r,u,303.3922101999997
2,22,Female,Right,21,Training,2.1000951000023633,0.05,true,bus,bus,occlusion,high,mask,partial viewing,many small,Training_Stimulus\manysmall_partialViewing_high_bus630.png,mask_img/000000005615.png,training,p,p,306.595233
2,22,Female,Right,22,Training,3.3091649999987567,0.025,true,building,building,occlusion,control,mask,partial viewing,few large,Training_Stimulus\fewlarge_partialViewing_control_building48.png,mask_img/000000000312.png,training,w,w,311.28402800000185
2,22,Female,Right,23,Training,1.7408827000035672,0.1,true,person,person,occlusion,control,mask,partial viewing,many small,Training_Stimulus\manysmall_partialViewing_control_person189.png,mask_img/000000005142.png,training,q,q,314.1615068000028
2,22,Female,Right,24,Training,10.674074700000347,0.05,false,bird,NAN,occlusion,control,mask,partial viewing,few large,Training_Stimulus\fewlarge_partialViewing_control_bird394.png,mask_img/000000000109.png,training,NAN,i,325.98908839999785
2,22,Female,Right,25,Training,2.735398600001645,0.025,false,banana,firehydrant,occlusion,high,mask,partial viewing,many small,Training_Stimulus\manysmall_partialViewing_high_banana589.png,mask_img/000000005359.png,training,r,u,330.1648253000021
2,22,Female,Right,26,Training,4.124326400000427,0.1,false,person,bird,occlusion,low,mask,partial viewing,few large,Training_Stimulus\fewlarge_partialViewing_low_person587.png,mask_img/000000003483.png,training,i,q,335.4986306999999
2,22,Female,Right,27,Training,1.872285199999169,0.05,false,person,firehydrant,occlusion,high,mask,partial viewing,few large,Training_Stimulus\fewlarge_partialViewing_high_person189.png,mask_img/000000001997.png,training,r,q,338.73494180000125
2,22,Female,Right,28,Training,1.5885352999976021,0.1,true,tree,tree,occlusion,control,mask,partial viewing,few large,Training_Stimulus\fewlarge_partialViewing_control_tree17.png,mask_img/000000000626.png,training,e,e,341.5640999000025
2,22,Female,Right,29,Training,1.3843393000061042,0.1,true,bus,bus,occlusion,control,mask,partial viewing,few large,Training_Stimulus\fewlarge_partialViewing_control_bus630.png,mask_img/000000000394.png,training,p,p,344.1121052000017
2,22,Female,Right,30,Training,1.670044800004689,0.025,false,building,banana,occlusion,high,mask,partial viewing,many small,Training_Stimulus\manysmall_partialViewing_high_building48.png,mask_img/000000005574.png,training,u,w,347.2718265000003
2,22,Female,Right,31,Training,1.2744198000000324,0.05,false,tree,banana,occlusion,high,mask,partial viewing,many small,Training_Stimulus\manysmall_partialViewing_high_tree25.png,mask_img/000000006263.png,training,u,e,349.60663999999815
2,22,Female,Right,32,Training,1.2452846999949543,0.1,false,firehydrant,banana,occlusion,high,mask,partial viewing,many small,Training_Stimulus\manysmall_partialViewing_high_firehydrant90.png,mask_img/000000006146.png,training,u,r,352.3114657999977
2,22,Female,Right,33,Training,3.459285400000226,0.025,false,bird,cat,occlusion,control,mask,partial viewing,few large,Training_Stimulus\fewlarge_partialViewing_control_bird394.png,mask_img/000000000109.png,training,o,i,356.9558279999983
2,22,Female,Right,34,Training,3.1418322999961674,0.025,false,cat,building,occlusion,control,mask,partial viewing,many small,Training_Stimulus\manysmall_partialViewing_control_cat511.png,mask_img/000000005105.png,training,w,o,361.5808615999995
2,22,Female,Right,35,Training,3.3390529999960563,0.1,false,building,bus,occlusion,high,mask,partial viewing,few large,Training_Stimulus\fewlarge_partialViewing_high_building71.png,mask_img/000000000873.png,training,p,w,366.0976115000012
2,22,Female,Right,36,Training,3.6124514999974053,0.05,true,bird,bird,occlusion,low,mask,partial viewing,few large,Training_Stimulus\fewlarge_partialViewing_low_bird1073.png,mask_img/000000002774.png,training,i,i,370.81693169999926
2,22,Female,Right,37,Training,2.1343836999949417,0.025,true,building,building,occlusion,low,mask,partial viewing,many small,Training_Stimulus\manysmall_partialViewing_low_building24.png,mask_img/000000006489.png,training,w,w,374.35189560000435
2,22,Female,Right,38,Training,1.136220599997614,0.1,true,building,building,occlusion,low,mask,partial viewing,few large,Training_Stimulus\fewlarge_partialViewing_low_building71.png,mask_img/000000002822.png,training,w,w,376.675610600003
2,22,Female,Right,39,Training,3.956632500005071,0.025,false,cat,bus,occlusion,high,mask,partial viewing,many small,Training_Stimulus\manysmall_partialViewing_high_cat511.png,mask_img/000000005862.png,training,p,o,381.8282376999996
2,22,Female,Right,40,Training,1.2131357999969623,0.05,true,bird,bird,occlusion,control,mask,partial viewing,many small,Training_Stimulus\manysmall_partialViewing_control_bird394.png,mask_img/000000004642.png,training,i,i,384.4234761999978
2,22,Female,Right,41,Training,1.6151587999993353,0.025,true,banana,banana,occlusion,control,mask,partial viewing,few large,Training_Stimulus\fewlarge_partialViewing_control_banana589.png,mask_img/000000000042.png,training,u,u,387.4571352999992
2,22,Female,Right,42,Training,1.4036666999963927,0.1,true,banana,banana,occlusion,low,mask,partial viewing,few large,Training_Stimulus\fewlarge_partialViewing_low_banana1022.png,mask_img/000000002337.png,training,u,u,390.1922193999999
2,22,Female,Right,43,Training,1.1445487000019057,0.025,true,person,person,occlusion,low,mask,partial viewing,few large,Training_Stimulus\fewlarge_partialViewing_low_person587.png,mask_img/000000003483.png,training,q,q,392.6145670000042
2,22,Female,Right,44,Training,3.0579011000008904,0.1,true,cat,cat,occlusion,low,mask,partial viewing,many small,Training_Stimulus\manysmall_partialViewing_low_cat593.png,mask_img/000000006842.png,training,o,o,397.02945929999987
2,22,Female,Right,45,Training,3.043032499997935,0.1,true,cat,cat,occlusion,high,mask,partial viewing,few large,Training_Stimulus\fewlarge_partialViewing_high_cat511.png,mask_img/000000001647.png,training,o,o,401.42174779999914
2,22,Female,Right,46,Training,1.8049145999975735,0.1,true,tree,tree,occlusion,low,mask,partial viewing,few large,Training_Stimulus\fewlarge_partialViewing_low_tree17.png,mask_img/000000003694.png,training,e,e,404.4863996999993
2,22,Female,Right,47,Training,2.6897708999968017,0.05,false,banana,bird,occlusion,high,mask,partial viewing,few large,Training_Stimulus\fewlarge_partialViewing_high_banana1022.png,mask_img/000000000690.png,training,i,u,408.6003153999991
2,22,Female,Right,48,Training,1.8769886999943992,0.025,true,cat,cat,occlusion,high,mask,partial viewing,few large,Training_Stimulus\fewlarge_partialViewing_high_cat511.png,mask_img/000000001647.png,training,o,o,411.59877640000195
2,22,Female,Right,49,Training,1.4094401000038488,0.025,true,building,building,occlusion,control,mask,partial viewing,many small,Training_Stimulus\manysmall_partialViewing_control_building48.png,mask_img/000000004739.png,training,w,w,414.2875017999977
2,22,Female,Right,50,Training,1.7248256000020774,0.05,true,banana,banana,occlusion,low,mask,partial viewing,few large,Training_Stimulus\fewlarge_partialViewing_low_banana1022.png,mask_img/000000002337.png,training,u,u,417.32038090000424
2,22,Female,Right,51,Training,1.1771078999954625,0.05,true,bus,bus,occlusion,low,mask,partial viewing,few large,Training_Stimulus\fewlarge_partialViewing_low_bus630.png,mask_img/000000002892.png,training,p,p,419.6247110999975
2,22,Female,Right,52,Training,1.634008500004711,0.1,false,bus,building,occlusion,high,mask,partial viewing,many small,Training_Stimulus\manysmall_partialViewing_high_bus630.png,mask_img/000000005615.png,training,w,p,422.56325160000415
2,22,Female,Right,53,Training,1.2812030999994022,0.05,true,cat,cat,occlusion,control,mask,partial viewing,few large,Training_Stimulus\fewlarge_partialViewing_control_cat511.png,mask_img/000000000438.png,training,o,o,425.1573621999996
2,22,Female,Right,54,Training,1.904568999998446,0.05,true,firehydrant,firehydrant,occlusion,control,mask,partial viewing,many small,Training_Stimulus\manysmall_partialViewing_control_firehydrant154.png,mask_img/000000005131.png,training,r,r,428.5836030999999
2,22,Female,Right,55,Training,1.6233706999992137,0.05,true,tree,tree,occlusion,low,mask,partial viewing,few large,Training_Stimulus\fewlarge_partialViewing_low_tree17.png,mask_img/000000003694.png,training,e,e,431.5294895000043
2,22,Female,Right,56,Training,1.510785999998916,0.1,true,cat,cat,occlusion,control,mask,partial viewing,few large,Training_Stimulus\fewlarge_partialViewing_control_cat511.png,mask_img/000000000438.png,training,o,o,434.5319167999987
2,22,Female,Right,57,Training,1.9864893999983906,0.1,true,bird,bird,occlusion,control,mask,partial viewing,few large,Training_Stimulus\fewlarge_partialViewing_control_bird394.png,mask_img/000000000109.png,training,i,i,437.7048842000004
2,22,Female,Right,58,Training,2.1092078000001493,0.025,false,bird,cat,occlusion,high,mask,partial viewing,many small,Training_Stimulus\manysmall_partialViewing_high_bird1073.png,mask_img/000000005418.png,training,o,i,441.0680745999998
2,22,Female,Right,59,Training,1.3953324000030989,0.1,true,bird,bird,occlusion,high,mask,partial viewing,few large,Training_Stimulus\fewlarge_partialViewing_high_bird394.png,mask_img/000000000731.png,training,i,i,443.9467569999979
2,22,Female,Right,60,Training,1.3761827999987872,0.05,false,firehydrant,cat,occlusion,low,mask,partial viewing,many small,Training_Stimulus\manysmall_partialViewing_low_firehydrant205.png,mask_img/000000006870.png,training,o,r,446.74447959999816
2,22,Female,Right,61,Training,3.56155569999828,0.1,false,cat,building,occlusion,high,mask,partial viewing,many small,Training_Stimulus\manysmall_partialViewing_high_cat511.png,mask_img/000000005862.png,training,w,o,451.56779619999725
2,22,Female,Right,62,Training,1.2394236999971326,0.05,true,firehydrant,firehydrant,occlusion,low,mask,partial viewing,few large,Training_Stimulus\fewlarge_partialViewing_low_firehydrant205.png,mask_img/000000003225.png,training,r,r,454.33459830000356
2,22,Female,Right,63,Training,1.9442272000014782,0.025,false,tree,banana,occlusion,low,mask,partial viewing,many small,Training_Stimulus\manysmall_partialViewing_low_tree25.png,mask_img/000000007325.png,training,u,e,457.5065188000008
2,22,Female,Right,64,Training,1.6234929999991436,0.05,true,cat,cat,occlusion,high,mask,partial viewing,few large,Training_Stimulus\fewlarge_partialViewing_high_cat511.png,mask_img/000000001647.png,training,o,o,460.439306500004
2,22,Female,Right,65,Training,1.254528699995717,0.05,true,building,building,occlusion,high,mask,partial viewing,many small,Training_Stimulus\manysmall_partialViewing_high_building48.png,mask_img/000000005574.png,training,w,w,462.9265424999976
2,22,Female,Right,66,Training,0.9118843000032939,0.05,true,person,person,occlusion,low,mask,partial viewing,few large,Training_Stimulus\fewlarge_partialViewing_low_person587.png,mask_img/000000003483.png,training,q,q,464.9438889000012
2,22,Female,Right,67,Training,1.1078335999991396,0.1,true,bus,bus,occlusion,control,mask,partial viewing,many small,Training_Stimulus\manysmall_partialViewing_control_bus630.png,mask_img/000000004936.png,training,p,p,467.55489050000324
2,22,Female,Right,68,Training,1.1190206999963266,0.1,true,bus,bus,occlusion,high,mask,partial viewing,few large,Training_Stimulus\fewlarge_partialViewing_high_bus929.png,mask_img/000000001053.png,training,p,p,470.2068614000018
2,22,Female,Right,69,Training,1.1117269999958808,0.025,true,building,building,occlusion,low,mask,partial viewing,few large,Training_Stimulus\fewlarge_partialViewing_low_building71.png,mask_img/000000002822.png,training,w,w,472.36980149999727
2,22,Female,Right,70,Training,1.027515100002347,0.025,true,building,building,occlusion,high,mask,partial viewing,few large,Training_Stimulus\fewlarge_partialViewing_high_building71.png,mask_img/000000000873.png,training,w,w,474.7463640999995
2,22,Female,Right,71,Training,3.6311294000042835,0.025,false,firehydrant,bus,occlusion,high,mask,partial viewing,many small,Training_Stimulus\manysmall_partialViewing_high_firehydrant90.png,mask_img/000000006146.png,training,p,r,479.62159840000095
2,22,Female,Right,72,Training,1.0966718999989098,0.1,false,bird,bus,occlusion,high,mask,partial viewing,many small,Training_Stimulus\manysmall_partialViewing_high_bird1073.png,mask_img/000000005418.png,training,p,i,481.97410110000055
2,22,Female,Right,73,Training,1.7544169999964652,0.05,true,banana,banana,occlusion,control,mask,partial viewing,few large,Training_Stimulus\fewlarge_partialViewing_control_banana589.png,mask_img/000000000042.png,training,u,u,484.8024183000016
2,22,Female,Right,74,Training,1.0366329999960726,0.1,true,banana,banana,occlusion,control,mask,partial viewing,few large,Training_Stimulus\fewlarge_partialViewing_control_banana589.png,mask_img/000000000042.png,training,u,u,487.3246894999975
2,22,Female,Right,75,Training,1.1871620000019902,0.025,true,firehydrant,firehydrant,occlusion,control,mask,partial viewing,few large,Training_Stimulus\fewlarge_partialViewing_control_firehydrant154.png,mask_img/000000000459.png,training,r,r,489.7610152999987
2,22,Female,Right,76,Training,1.230644299997948,0.025,true,firehydrant,firehydrant,occlusion,control,mask,partial viewing,many small,Training_Stimulus\manysmall_partialViewing_control_firehydrant154.png,mask_img/000000005131.png,training,r,r,492.082688100003
2,22,Female,Right,77,Training,1.1737944999986212,0.025,true,firehydrant,firehydrant,occlusion,high,mask,partial viewing,few large,Training_Stimulus\fewlarge_partialViewing_high_firehydrant90.png,mask_img/000000001810.png,training,r,r,494.489665699999
2,22,Female,Right,78,Training,2.236250800000562,0.025,false,banana,firehydrant,occlusion,high,mask,partial viewing,few large,Training_Stimulus\fewlarge_partialViewing_high_banana1022.png,mask_img/000000000690.png,training,r,u,498.07729069999914
2,22,Female,Right,79,Training,2.560208499999135,0.05,true,bird,bird,occlusion,high,mask,partial viewing,many small,Training_Stimulus\manysmall_partialViewing_high_bird1073.png,mask_img/000000005418.png,training,i,i,502.03583400000207
2,22,Female,Right,80,Training,1.0624113000012585,0.05,true,bus,bus,occlusion,control,mask,partial viewing,few large,Training_Stimulus\fewlarge_partialViewing_control_bus630.png,mask_img/000000000394.png,training,p,p,504.39709559999756
2,22,Female,Right,81,Training,2.553576999998768,0.1,false,banana,building,occlusion,high,mask,partial viewing,many small,Training_Stimulus\manysmall_partialViewing_high_banana589.png,mask_img/000000005359.png,training,w,u,508.1948443000001
2,22,Female,Right,82,Training,1.765309000002162,0.05,false,firehydrant,building,occlusion,high,mask,partial viewing,many small,Training_Stimulus\manysmall_partialViewing_high_firehydrant90.png,mask_img/000000006146.png,training,w,r,511.28877959999954
2,22,Female,Right,83,Training,1.1620167000000947,0.05,true,bus,bus,occlusion,control,mask,partial viewing,many small,Training_Stimulus\manysmall_partialViewing_control_bus630.png,mask_img/000000004936.png,training,p,p,513.4852627
2,22,Female,Right,84,Training,1.6184293999976944,0.1,false,person,building,occlusion,high,mask,partial viewing,many small,Training_Stimulus\manysmall_partialViewing_high_person475.png,mask_img/000000006153.png,training,w,q,516.407091699999
2,22,Female,Right,85,Training,1.3969938000009279,0.1,true,cat,cat,occlusion,low,mask,partial viewing,few large,Training_Stimulus\fewlarge_partialViewing_low_cat593.png,mask_img/000000003084.png,training,o,o,519.0646603999994
2,22,Female,Right,86,Training,1.4015971000044374,0.1,true,firehydrant,firehydrant,occlusion,high,mask,partial viewing,few large,Training_Stimulus\fewlarge_partialViewing_high_firehydrant90.png,mask_img/000000001810.png,training,r,r,521.6211365999989
2,22,Female,Right,87,Training,1.432465099998808,0.05,true,firehydrant,firehydrant,occlusion,high,mask,partial viewing,few large,Training_Stimulus\fewlarge_partialViewing_high_firehydrant90.png,mask_img/000000001810.png,training,r,r,524.2460578000027
2,22,Female,Right,88,Training,4.084314800005814,0.05,false,tree,banana,occlusion,control,mask,partial viewing,many small,Training_Stimulus\manysmall_partialViewing_control_tree25.png,mask_img/000000005282.png,training,u,e,529.5920990000013
2,22,Female,Right,89,Training,2.1440648999996483,0.05,true,building,building,occlusion,high,mask,partial viewing,few large,Training_Stimulus\fewlarge_partialViewing_high_building71.png,mask_img/000000000873.png,training,w,w,532.8025015000021
2,22,Female,Right,90,Training,0.9841090000045369,0.05,true,person,person,occlusion,control,mask,partial viewing,few large,Training_Stimulus\fewlarge_partialViewing_control_person475.png,mask_img/000000000595.png,training,q,q,535.2291554999974
2,22,Female,Right,91,Training,0.959516299997631,0.1,true,bus,bus,occlusion,low,mask,partial viewing,few large,Training_Stimulus\fewlarge_partialViewing_low_bus630.png,mask_img/000000002892.png,training,p,p,537.4651290999973
2,22,Female,Right,92,Training,1.0648695000054431,0.05,true,banana,banana,occlusion,control,mask,partial viewing,many small,Training_Stimulus\manysmall_partialViewing_control_banana1022.png,mask_img/000000004239.png,training,u,u,539.9025144000043
2,22,Female,Right,93,Training,1.2366517999980715,0.025,true,bird,bird,occlusion,control,mask,partial viewing,many small,Training_Stimulus\manysmall_partialViewing_control_bird394.png,mask_img/000000004642.png,training,i,i,542.2778107999984
2,22,Female,Right,94,Training,1.4097572000027867,0.025,true,tree,tree,occlusion,low,mask,partial viewing,few large,Training_Stimulus\fewlarge_partialViewing_low_tree17.png,mask_img/000000003694.png,training,e,e,545.1370626999997
2,22,Female,Right,95,Training,1.3107690999968327,0.1,true,building,building,occlusion,high,mask,partial viewing,many small,Training_Stimulus\manysmall_partialViewing_high_building48.png,mask_img/000000005574.png,training,w,w,547.6151453999992
2,22,Female,Right,96,Training,1.1753368999998202,0.05,true,bus,bus,occlusion,low,mask,partial viewing,many small,Training_Stimulus\manysmall_partialViewing_low_bus630.png,mask_img/000000006709.png,training,p,p,549.9136755
2,22,Female,Right,1,Block 1,1.1425376999977743,0.025,true,bird,bird,occlusion,control,mask,partial viewing,few large,Stimulus\all_stim\occlusion\partialviewing\fewlarge\control\fewlarge_partialViewing_control_bird10.png,mask_img/000000001053.png,experiment,i,i,645.0685338000039
2,22,Female,Right,2,Block 1,2.107703699999547,0.1,true,bird,bird,occlusion,control,mask,partial viewing,few large,Stimulus\all_stim\occlusion\partialviewing\fewlarge\control\fewlarge_partialViewing_control_bird6.png,mask_img/000000002337.png,experiment,i,i,647.9166810000024
2,22,Female,Right,3,Block 1,1.0144094999996014,0.025,true,person,person,occlusion,control,mask,partial viewing,few large,Stimulus\all_stim\occlusion\partialviewing\fewlarge\control\fewlarge_partialViewing_control_person4.png,mask_img/000000009178.png,experiment,q,q,649.8451217999973
2,22,Female,Right,4,Block 1,1.548323299997719,0.1,true,banana,banana,occlusion,low,mask,partial viewing,few large,Stimulus\all_stim\occlusion\partialviewing\fewlarge\low\fewlarge_partialViewing_low_banana10.png,mask_img/000000022563.png,experiment,u,u,652.3490442000038
2,22,Female,Right,5,Block 1,1.1393057000022964,0.1,true,bird,bird,occlusion,low,mask,partial viewing,few large,Stimulus\all_stim\occlusion\partialviewing\fewlarge\low\fewlarge_partialViewing_low_bird10.png,mask_img/000000023988.png,experiment,i,i,654.5971406000026
2,22,Female,Right,6,Block 1,1.4586601999981212,0.025,true,cat,cat,occlusion,low,mask,partial viewing,few large,Stimulus\all_stim\occlusion\partialviewing\fewlarge\low\fewlarge_partialViewing_low_cat5.png,mask_img/000000027704.png,experiment,o,o,656.7808100999973
2,22,Female,Right,7,Block 1,1.0129512999992585,0.025,true,bus,bus,occlusion,control,mask,partial viewing,many small,Stimulus\all_stim\occlusion\partialviewing\manysmall\control\manysmall_partialViewing_control_bus1.png,mask_img/000000036255.png,experiment,p,p,658.6603299999988
2,22,Female,Right,8,Block 1,1.3106265000023996,0.1,true,building,building,occlusion,control,mask,partial viewing,few large,Stimulus\all_stim\occlusion\partialviewing\fewlarge\control\fewlarge_partialViewing_control_building5.png,mask_img/000000004642.png,experiment,w,w,660.8367130000042
2,22,Female,Right,9,Block 1,3.4059095999982674,0.05,false,person,tree,occlusion,high,mask,partial viewing,many small,Stimulus\all_stim\occlusion\partialviewing\manysmall\high\manysmall_partialViewing_high_person2.png,mask_img/000000051461.png,experiment,e,q,665.3007130000042
2,22,Female,Right,10,Block 1,1.061331600001722,0.1,true,bus,bus,occlusion,control,mask,partial viewing,few large,Stimulus\all_stim\occlusion\partialviewing\fewlarge\control\fewlarge_partialViewing_control_bus6.png,mask_img/000000005862.png,experiment,p,p,667.3257621000012
2,22,Female,Right,11,Block 1,1.136301899998216,0.025,true,banana,banana,occlusion,low,mask,partial viewing,few large,Stimulus\all_stim\occlusion\partialviewing\fewlarge\low\fewlarge_partialViewing_low_banana5.png,mask_img/000000023100.png,experiment,u,u,669.5325290999972
2,22,Female,Right,12,Block 1,1.1706865999949514,0.05,true,bird,bird,occlusion,low,mask,partial viewing,many small,Stimulus\all_stim\occlusion\partialviewing\manysmall\low\manysmall_partialViewing_low_bird3.png,mask_img/000000055849.png,experiment,i,i,671.5166423999981
2,22,Female,Right,13,Block 1,0.986916800000472,0.025,true,person,person,occlusion,low,mask,partial viewing,few large,Stimulus\all_stim\occlusion\partialviewing\fewlarge\low\fewlarge_partialViewing_low_person2.png,mask_img/000000029274.png,experiment,q,q,673.3965629000013
2,22,Female,Right,14,Block 1,1.2816569999995409,0.025,true,bus,bus,occlusion,low,mask,partial viewing,few large,Stimulus\all_stim\occlusion\partialviewing\fewlarge\low\fewlarge_partialViewing_low_bus8.png,mask_img/000000026782.png,experiment,p,p,675.6126442000023
2,22,Female,Right,15,Block 1,4.114175899994734,0.1,false,building,firehydrant,occlusion,low,mask,partial viewing,many small,Stimulus\all_stim\occlusion\partialviewing\manysmall\low\manysmall_partialViewing_low_building10.png,mask_img/000000057068.png,experiment,r,w,680.4287150000018
2,22,Female,Right,16,Block 1,1.8967994999984512,0.05,false,bird,tree,occlusion,high,mask,partial viewing,many small,Stimulus\all_stim\occlusion\partialviewing\manysmall\high\manysmall_partialViewing_high_bird4.png,mask_img/000000044136.png,experiment,e,i,683.1982123999987
2,22,Female,Right,17,Block 1,1.2269697000010638,0.1,true,tree,tree,occlusion,high,mask,partial viewing,many small,Stimulus\all_stim\occlusion\partialviewing\manysmall\high\manysmall_partialViewing_high_tree6.png,mask_img/000000053539.png,experiment,e,e,685.2612458000003
2,22,Female,Right,18,Block 1,1.2428542999987258,0.05,true,bird,bird,occlusion,low,mask,partial viewing,few large,Stimulus\all_stim\occlusion\partialviewing\fewlarge\low\fewlarge_partialViewing_low_bird5.png,mask_img/000000024239.png,experiment,i,i,687.3407107000021
2,22,Female,Right,19,Block 1,3.8642850000032922,0.1,true,cat,cat,occlusion,low,mask,partial viewing,few large,Stimulus\all_stim\occlusion\partialviewing\fewlarge\low\fewlarge_partialViewing_low_cat1.png,mask_img/000000027151.png,experiment,o,o,691.9169653999998
2,22,Female,Right,20,Block 1,4.405619799996202,0.1,false,firehydrant,tree,occlusion,high,mask,partial viewing,many small,Stimulus\all_stim\occlusion\partialviewing\manysmall\high\manysmall_partialViewing_high_firehydrant3.png,mask_img/000000050276.png,experiment,e,r,697.3405091000022
2,22,Female,Right,21,Block 1,3.033599900001718,0.1,false,cat,bird,occlusion,high,mask,partial viewing,many small,Stimulus\all_stim\occlusion\partialviewing\manysmall\high\manysmall_partialViewing_high_cat5.png,mask_img/000000049428.png,experiment,i,o,701.0852367000043
2,22,Female,Right,22,Block 1,3.7121031999995466,0.025,false,bird,firehydrant,occlusion,control,mask,partial viewing,many small,Stimulus\all_stim\occlusion\partialviewing\manysmall\control\manysmall_partialViewing_control_bird9.png,mask_img/000000035514.png,experiment,r,i,705.5972363999972
2,22,Female,Right,23,Block 1,1.7533272999935434,0.1,true,building,building,occlusion,low,mask,partial viewing,many small,Stimulus\all_stim\occlusion\partialviewing\manysmall\low\manysmall_partialViewing_low_building3.png,mask_img/000000057646.png,experiment,w,w,708.3168299000026
2,22,Female,Right,24,Block 1,1.8561736999981804,0.05,true,bird,bird,occlusion,low,mask,partial viewing,few large,Stimulus\all_stim\occlusion\partialviewing\fewlarge\low\fewlarge_partialViewing_low_bird7.png,mask_img/000000024403.png,experiment,i,i,710.9482532000038
2,22,Female,Right,25,Block 1,1.2512420999992173,0.1,true,bus,bus,occlusion,low,mask,partial viewing,many small,Stimulus\all_stim\occlusion\partialviewing\manysmall\low\manysmall_partialViewing_low_bus6.png,mask_img/000000058815.png,experiment,p,p,713.0289755999984
2,22,Female,Right,26,Block 1,2.771640300001309,0.025,false,cat,bird,occlusion,high,mask,partial viewing,many small,Stimulus\all_stim\occlusion\partialviewing\manysmall\high\manysmall_partialViewing_high_cat3.png,mask_img/000000049254.png,experiment,i,o,716.7568031999981
2,22,Female,Right,27,Block 1,1.1813524000026518,0.025,true,cat,cat,occlusion,high,mask,partial viewing,few large,Stimulus\all_stim\occlusion\partialviewing\fewlarge\high\fewlarge_partialViewing_high_cat3.png,mask_img/000000017356.png,experiment,o,o,719.0287997999985
2,22,Female,Right,28,Block 1,0.9505968000012217,0.025,true,cat,cat,occlusion,control,mask,partial viewing,few large,Stimulus\all_stim\occlusion\partialviewing\fewlarge\control\fewlarge_partialViewing_control_cat7.png,mask_img/000000007325.png,experiment,o,o,720.8606269000011
2,22,Female,Right,29,Block 1,1.3361807000037516,0.1,true,tree,tree,occlusion,control,mask,partial viewing,few large,Stimulus\all_stim\occlusion\partialviewing\fewlarge\control\fewlarge_partialViewing_control_tree5.png,mask_img/000000010991.png,experiment,e,e,723.1809886999981
2,22,Female,Right,30,Block 1,1.02568930000416,0.05,true,banana,banana,occlusion,low,mask,partial viewing,few large,Stimulus\all_stim\occlusion\partialviewing\fewlarge\low\fewlarge_partialViewing_low_banana1.png,mask_img/000000022545.png,experiment,u,u,725.260766200001
2,22,Female,Right,31,Block 1,1.1908273000008194,0.025,true,cat,cat,occlusion,control,mask,partial viewing,few large,Stimulus\all_stim\occlusion\partialviewing\fewlarge\control\fewlarge_partialViewing_control_cat2.png,mask_img/000000006489.png,experiment,o,o,727.516489499998
2,22,Female,Right,32,Block 1,0.9191264999972191,0.1,true,cat,cat,occlusion,low,mask,partial viewing,few large,Stimulus\all_stim\occlusion\partialviewing\fewlarge\low\fewlarge_partialViewing_low_cat7.png,mask_img/000000027890.png,experiment,o,o,729.476911800004
2,22,Female,Right,33,Block 1,1.081805899993924,0.025,false,building,bus,occlusion,low,mask,partial viewing,many small,Stimulus\all_stim\occlusion\partialviewing\manysmall\low\manysmall_partialViewing_low_building4.png,mask_img/000000057782.png,experiment,p,w,731.2373510000034
2,22,Female,Right,34,Block 1,0.9753678000051877,0.025,true,banana,banana,occlusion,low,mask,partial viewing,few large,Stimulus\all_stim\occlusion\partialviewing\fewlarge\low\fewlarge_partialViewing_low_banana9.png,mask_img/000000023967.png,experiment,u,u,733.1804028000042
2,22,Female,Right,35,Block 1,1.3018507999950089,0.025,true,tree,tree,occlusion,control,mask,partial viewing,many small,Stimulus\all_stim\occlusion\partialviewing\manysmall\control\manysmall_partialViewing_control_tree9.png,mask_img/000000041840.png,experiment,e,e,735.5249726999973
2,22,Female,Right,36,Block 1,1.1854428999940865,0.025,true,bird,bird,occlusion,low,mask,partial viewing,few large,Stimulus\all_stim\occlusion\partialviewing\fewlarge\low\fewlarge_partialViewing_low_bird2.png,mask_img/000000024125.png,experiment,i,i,737.6203693999996
2,22,Female,Right,37,Block 1,1.4153316999945673,0.1,true,building,building,occlusion,high,mask,partial viewing,many small,Stimulus\all_stim\occlusion\partialviewing\manysmall\high\manysmall_partialViewing_high_building2.png,mask_img/000000045306.png,experiment,w,w,739.8528205000039
2,22,Female,Right,38,Block 1,1.6583119999995688,0.025,true,firehydrant,firehydrant,occlusion,low,mask,partial viewing,few large,Stimulus\all_stim\occlusion\partialviewing\fewlarge\low\fewlarge_partialViewing_low_firehydrant9.png,mask_img/000000029056.png,experiment,r,r,742.3650237999973
2,22,Female,Right,39,Block 1,0.9608497000008356,0.05,true,bus,bus,occlusion,control,mask,partial viewing,many small,Stimulus\all_stim\occlusion\partialviewing\manysmall\control\manysmall_partialViewing_control_bus5.png,mask_img/000000037140.png,experiment,p,p,744.4046519999974
2,22,Female,Right,40,Block 1,1.8832034000006388,0.05,true,tree,tree,occlusion,control,mask,partial viewing,few large,Stimulus\all_stim\occlusion\partialviewing\fewlarge\control\fewlarge_partialViewing_control_tree7.png,mask_img/000000011504.png,experiment,e,e,747.1326056000034
2,22,Female,Right,41,Block 1,2.031977900005586,0.025,true,firehydrant,firehydrant,occlusion,control,mask,partial viewing,many small,Stimulus\all_stim\occlusion\partialviewing\manysmall\control\manysmall_partialViewing_control_firehydrant10.png,mask_img/000000039053.png,experiment,r,r,749.892543599999
2,22,Female,Right,42,Block 1,1.149211700001615,0.025,true,bus,bus,occlusion,high,mask,partial viewing,few large,Stimulus\all_stim\occlusion\partialviewing\fewlarge\high\fewlarge_partialViewing_high_bus4.png,mask_img/000000015927.png,experiment,p,p,751.7803484000033
2,22,Female,Right,43,Block 1,1.0399542000013753,0.05,true,person,person,occlusion,control,mask,partial viewing,many small,Stimulus\all_stim\occlusion\partialviewing\manysmall\control\manysmall_partialViewing_control_person3.png,mask_img/000000040008.png,experiment,q,q,753.9407747000005
2,22,Female,Right,44,Block 1,1.0522158999956446,0.1,true,banana,banana,occlusion,low,mask,partial viewing,few large,Stimulus\all_stim\occlusion\partialviewing\fewlarge\low\fewlarge_partialViewing_low_banana4.png,mask_img/000000023015.png,experiment,u,u,756.108716499999
2,22,Female,Right,45,Block 1,1.032433200001833,0.1,true,bus,bus,occlusion,control,mask,partial viewing,many small,Stimulus\all_stim\occlusion\partialviewing\manysmall\control\manysmall_partialViewing_control_bus1.png,mask_img/000000036255.png,experiment,p,p,758.0127710000015
2,22,Female,Right,46,Block 1,1.3818700999981957,0.1,false,tree,building,occlusion,low,mask,partial viewing,many small,Stimulus\all_stim\occlusion\partialviewing\manysmall\low\manysmall_partialViewing_low_tree10.png,mask_img/000000062716.png,experiment,w,e,760.4927443999986
2,22,Female,Right,47,Block 1,1.0686562000046251,0.025,true,banana,banana,occlusion,control,mask,partial viewing,many small,Stimulus\all_stim\occlusion\partialviewing\manysmall\control\manysmall_partialViewing_control_banana2.png,mask_img/000000033126.png,experiment,u,u,762.2369364000042
2,22,Female,Right,48,Block 1,2.1637469999986934,0.1,false,firehydrant,person,occlusion,high,mask,partial viewing,many small,Stimulus\all_stim\occlusion\partialviewing\manysmall\high\manysmall_partialViewing_high_firehydrant6.png,mask_img/000000050782.png,experiment,q,r,765.2126639999988
2,22,Female,Right,49,Block 1,1.070913899995503,0.025,true,bus,bus,occlusion,high,mask,partial viewing,few large,Stimulus\all_stim\occlusion\partialviewing\fewlarge\high\fewlarge_partialViewing_high_bus6.png,mask_img/000000015987.png,experiment,p,p,767.3089488000041
2,22,Female,Right,50,Block 1,1.3198522000020603,0.1,true,firehydrant,firehydrant,occlusion,low,mask,partial viewing,many small,Stimulus\all_stim\occlusion\partialviewing\manysmall\low\manysmall_partialViewing_low_firehydrant5.png,mask_img/000000060623.png,experiment,r,r,769.6050370000012
2,22,Female,Right,51,Block 1,1.5711100999978953,0.1,false,bird,banana,occlusion,low,mask,partial viewing,many small,Stimulus\all_stim\occlusion\partialviewing\manysmall\low\manysmall_partialViewing_low_bird3.png,mask_img/000000055849.png,experiment,u,i,771.8127513
2,22,Female,Right,52,Block 1,1.8754451999993762,0.1,true,banana,banana,occlusion,control,mask,partial viewing,few large,Stimulus\all_stim\occlusion\partialviewing\fewlarge\control\fewlarge_partialViewing_control_banana3.png,mask_img/000000000394.png,experiment,u,u,774.5247844000041
2,22,Female,Right,53,Block 1,1.7687883999969927,0.1,true,firehydrant,firehydrant,occlusion,high,mask,partial viewing,many small,Stimulus\all_stim\occlusion\partialviewing\manysmall\high\manysmall_partialViewing_high_firehydrant10.png,mask_img/000000050148.png,experiment,r,r,777.0048399000007
2,22,Female,Right,54,Block 1,1.9628804000021773,0.05,true,cat,cat,occlusion,control,mask,partial viewing,many small,Stimulus\all_stim\occlusion\partialviewing\manysmall\control\manysmall_partialViewing_control_cat1.png,mask_img/000000038177.png,experiment,o,o,779.6849636999978
2,22,Female,Right,55,Block 1,1.3137597999957507,0.05,true,building,building,occlusion,control,mask,partial viewing,few large,Stimulus\all_stim\occlusion\partialviewing\fewlarge\control\fewlarge_partialViewing_control_building4.png,mask_img/000000004239.png,experiment,w,w,781.8686601000009
2,22,Female,Right,56,Block 1,1.554678899999999,0.1,true,firehydrant,firehydrant,occlusion,control,mask,partial viewing,few large,Stimulus\all_stim\occlusion\partialviewing\fewlarge\control\fewlarge_partialViewing_control_firehydrant6.png,mask_img/000000008025.png,experiment,r,r,784.2686939999985
2,22,Female,Right,57,Block 1,2.7082628999996814,0.025,true,person,person,occlusion,high,mask,partial viewing,many small,Stimulus\all_stim\occlusion\partialviewing\manysmall\high\manysmall_partialViewing_high_person5.png,mask_img/000000052250.png,experiment,q,q,787.6365968000027
2,22,Female,Right,58,Block 1,2.3635723999977927,0.05,false,person,bird,occlusion,high,mask,partial viewing,many small,Stimulus\all_stim\occlusion\partialviewing\manysmall\high\manysmall_partialViewing_high_person7.png,mask_img/000000052562.png,experiment,i,q,790.7729239000037
2,22,Female,Right,59,Block 1,1.2666650999963167,0.1,true,cat,cat,occlusion,low,mask,partial viewing,few large,Stimulus\all_stim\occlusion\partialviewing\fewlarge\low\fewlarge_partialViewing_low_cat5.png,mask_img/000000027704.png,experiment,o,o,792.812998100002
2,22,Female,Right,60,Block 1,2.280599500001699,0.025,false,cat,bird,occlusion,high,mask,partial viewing,few large,Stimulus\all_stim\occlusion\partialviewing\fewlarge\high\fewlarge_partialViewing_high_cat5.png,mask_img/000000017409.png,experiment,i,o,795.8927700999993
2,22,Female,Right,61,Block 1,3.9645533000002615,0.1,true,banana,banana,occlusion,high,mask,partial viewing,many small,Stimulus\all_stim\occlusion\partialviewing\manysmall\high\manysmall_partialViewing_high_banana1.png,mask_img/000000041962.png,experiment,u,u,800.5089866999988
2,22,Female,Right,62,Block 1,1.6628800999969826,0.025,true,firehydrant,firehydrant,occlusion,control,mask,partial viewing,few large,Stimulus\all_stim\occlusion\partialviewing\fewlarge\control\fewlarge_partialViewing_control_firehydrant9.png,mask_img/000000008329.png,experiment,r,r,803.188885800002
2,22,Female,Right,63,Block 1,1.517052800001693,0.05,false,bus,building,occlusion,high,mask,partial viewing,many small,Stimulus\all_stim\occlusion\partialviewing\manysmall\high\manysmall_partialViewing_high_bus3.png,mask_img/000000047229.png,experiment,w,p,805.6687745000017
2,22,Female,Right,64,Block 1,1.482365399999253,0.1,true,banana,banana,occlusion,low,mask,partial viewing,many small,Stimulus\all_stim\occlusion\partialviewing\manysmall\low\manysmall_partialViewing_low_banana3.png,mask_img/000000054875.png,experiment,u,u,808.1649796999991
2,22,Female,Right,65,Block 1,1.3121134000029997,0.1,false,tree,building,occlusion,high,mask,partial viewing,many small,Stimulus\all_stim\occlusion\partialviewing\manysmall\high\manysmall_partialViewing_high_tree2.png,mask_img/000000052901.png,experiment,w,e,810.2130480999986
2,22,Female,Right,66,Block 1,3.5146905000001425,0.1,false,person,tree,occlusion,high,mask,partial viewing,many small,Stimulus\all_stim\occlusion\partialviewing\manysmall\high\manysmall_partialViewing_high_person2.png,mask_img/000000051461.png,experiment,e,q,814.4048330000005
2,22,Female,Right,67,Block 1,0.977373699999589,0.025,true,person,person,occlusion,control,mask,partial viewing,few large,Stimulus\all_stim\occlusion\partialviewing\fewlarge\control\fewlarge_partialViewing_control_person9.png,mask_img/000000009809.png,experiment,q,q,816.2685160000037
2,22,Female,Right,68,Block 1,1.2283425999994506,0.05,true,person,person,occlusion,control,mask,partial viewing,many small,Stimulus\all_stim\occlusion\partialviewing\manysmall\control\manysmall_partialViewing_control_person2.png,mask_img/000000039971.png,experiment,q,q,818.6289802000028
2,22,Female,Right,69,Block 1,1.6094456999999238,0.05,true,cat,cat,occlusion,high,mask,partial viewing,few large,Stimulus\all_stim\occlusion\partialviewing\fewlarge\high\fewlarge_partialViewing_high_cat10.png,mask_img/000000017308.png,experiment,o,o,821.0447657999975
2,22,Female,Right,70,Block 1,1.2961562999989837,0.1,false,firehydrant,cat,occlusion,high,mask,partial viewing,many small,Stimulus\all_stim\occlusion\partialviewing\manysmall\high\manysmall_partialViewing_high_firehydrant8.png,mask_img/000000050794.png,experiment,o,r,823.0047441999995
2,22,Female,Right,71,Block 1,1.0398563999988255,0.1,true,bus,bus,occlusion,high,mask,partial viewing,few large,Stimulus\all_stim\occlusion\partialviewing\fewlarge\high\fewlarge_partialViewing_high_bus6.png,mask_img/000000015987.png,experiment,p,p,824.8769487000027
2,22,Female,Right,72,Block 1,1.1432234000021708,0.1,true,banana,banana,occlusion,control,mask,partial viewing,few large,Stimulus\all_stim\occlusion\partialviewing\fewlarge\control\fewlarge_partialViewing_control_banana6.png,mask_img/000000000595.png,experiment,u,u,826.7167849000034
2,22,Female,Right,73,Block 1,2.222389000002295,0.05,true,tree,tree,occlusion,control,mask,partial viewing,many small,Stimulus\all_stim\occlusion\partialviewing\manysmall\control\manysmall_partialViewing_control_tree2.png,mask_img/000000041008.png,experiment,e,e,830.0608981000041
2,22,Female,Right,74,Block 1,1.5409099999960745,0.1,false,bus,building,occlusion,high,mask,partial viewing,many small,Stimulus\all_stim\occlusion\partialviewing\manysmall\high\manysmall_partialViewing_high_bus4.png,mask_img/000000047316.png,experiment,w,p,832.4127077000012
2,22,Female,Right,75,Block 1,1.0328915999998571,0.025,true,person,person,occlusion,high,mask,partial viewing,few large,Stimulus\all_stim\occlusion\partialviewing\fewlarge\high\fewlarge_partialViewing_high_person8.png,mask_img/000000020570.png,experiment,q,q,834.1092772999982
2,22,Female,Right,76,Block 1,1.0658402999979444,0.1,true,banana,banana,occlusion,high,mask,partial viewing,few large,Stimulus\all_stim\occlusion\partialviewing\fewlarge\high\fewlarge_partialViewing_high_banana10.png,mask_img/000000012178.png,experiment,u,u,836.0768535000025
2,22,Female,Right,77,Block 1,1.3804539000047953,0.025,true,bird,bird,occlusion,control,mask,partial viewing,many small,Stimulus\all_stim\occlusion\partialviewing\manysmall\control\manysmall_partialViewing_control_bird8.png,mask_img/000000035190.png,experiment,i,i,838.3486642999997
2,22,Female,Right,78,Block 1,1.6646388999943156,0.025,true,building,building,occlusion,low,mask,partial viewing,many small,Stimulus\all_stim\occlusion\partialviewing\manysmall\low\manysmall_partialViewing_low_building1.png,mask_img/000000056716.png,experiment,w,w,841.1649296000032
2,22,Female,Right,79,Block 1,1.1217806999993627,0.1,true,tree,tree,occlusion,low,mask,partial viewing,few large,Stimulus\all_stim\occlusion\partialviewing\fewlarge\low\fewlarge_partialViewing_low_tree5.png,mask_img/000000032403.png,experiment,e,e,843.3085931000023
2,22,Female,Right,80,Block 1,0.9133220000003348,0.025,true,person,person,occlusion,low,mask,partial viewing,few large,Stimulus\all_stim\occlusion\partialviewing\fewlarge\low\fewlarge_partialViewing_low_person10.png,mask_img/000000029128.png,experiment,q,q,845.2929852000016
2,22,Female,Right,81,Block 1,1.195423999997729,0.05,true,bus,bus,occlusion,control,mask,partial viewing,many small,Stimulus\all_stim\occlusion\partialviewing\manysmall\control\manysmall_partialViewing_control_bus2.png,mask_img/000000036622.png,experiment,p,p,847.3086686000024
2,22,Female,Right,82,Block 1,1.1483003000030294,0.025,true,bus,bus,occlusion,low,mask,partial viewing,few large,Stimulus\all_stim\occlusion\partialviewing\fewlarge\low\fewlarge_partialViewing_low_bus10.png,mask_img/000000025855.png,experiment,p,p,849.3971998999987
2,22,Female,Right,83,Block 1,1.1901820000057342,0.05,true,cat,cat,occlusion,high,mask,partial viewing,few large,Stimulus\all_stim\occlusion\partialviewing\fewlarge\high\fewlarge_partialViewing_high_cat1.png,mask_img/000000017183.png,experiment,o,o,851.5407864000008
2,22,Female,Right,84,Block 1,1.0305872999961139,0.05,true,bus,bus,occlusion,control,mask,partial viewing,few large,Stimulus\all_stim\occlusion\partialviewing\fewlarge\control\fewlarge_partialViewing_control_bus10.png,mask_img/000000005282.png,experiment,p,p,853.4365105000034
2,22,Female,Right,85,Block 1,1.616561200004071,0.1,true,firehydrant,firehydrant,occlusion,low,mask,partial viewing,few large,Stimulus\all_stim\occlusion\partialviewing\fewlarge\low\fewlarge_partialViewing_low_firehydrant1.png,mask_img/000000028304.png,experiment,r,r,855.764777299999
2,22,Female,Right,86,Block 1,2.062484400004905,0.025,true,bird,bird,occlusion,control,mask,partial viewing,many small,Stimulus\all_stim\occlusion\partialviewing\manysmall\control\manysmall_partialViewing_control_bird3.png,mask_img/000000034570.png,experiment,i,i,858.6047494000013
2,22,Female,Right,87,Block 1,0.9507856999989599,0.025,true,person,person,occlusion,high,mask,partial viewing,few large,Stimulus\all_stim\occlusion\partialviewing\fewlarge\high\fewlarge_partialViewing_high_person2.png,mask_img/000000019932.png,experiment,q,q,860.540774000001
2,22,Female,Right,88,Block 1,1.7255237999997917,0.1,true,tree,tree,occlusion,control,mask,partial viewing,few large,Stimulus\all_stim\occlusion\partialviewing\fewlarge\control\fewlarge_partialViewing_control_tree1.png,mask_img/000000010281.png,experiment,e,e,862.9328442000042
2,22,Female,Right,89,Block 1,1.0741829999969923,0.05,true,tree,tree,occlusion,low,mask,partial viewing,few large,Stimulus\all_stim\occlusion\partialviewing\fewlarge\low\fewlarge_partialViewing_low_tree10.png,mask_img/000000031454.png,experiment,e,e,864.8125396000032
2,22,Female,Right,90,Block 1,1.1417700000019977,0.05,true,building,building,occlusion,control,mask,partial viewing,few large,Stimulus\all_stim\occlusion\partialviewing\fewlarge\control\fewlarge_partialViewing_control_building10.png,mask_img/000000003225.png,experiment,w,w,866.8042677999983
2,22,Female,Right,91,Block 1,1.1268417000028421,0.025,false,cat,tree,occlusion,low,mask,partial viewing,few large,Stimulus\all_stim\occlusion\partialviewing\fewlarge\low\fewlarge_partialViewing_low_cat10.png,mask_img/000000027319.png,experiment,e,o,868.8206514999983
2,22,Female,Right,92,Block 1,1.2905201999965357,0.1,true,bus,bus,occlusion,low,mask,partial viewing,few large,Stimulus\all_stim\occlusion\partialviewing\fewlarge\low\fewlarge_partialViewing_low_bus3.png,mask_img/000000025997.png,experiment,p,p,871.1408870000014
2,22,Female,Right,93,Block 1,3.022794199998316,0.1,true,bus,bus,occlusion,control,mask,partial viewing,many small,Stimulus\all_stim\occlusion\partialviewing\manysmall\control\manysmall_partialViewing_control_bus3.png,mask_img/000000036765.png,experiment,p,p,875.1970445000043
2,22,Female,Right,94,Block 1,0.9581945999962045,0.025,true,person,person,occlusion,low,mask,partial viewing,few large,Stimulus\all_stim\occlusion\partialviewing\fewlarge\low\fewlarge_partialViewing_low_person3.png,mask_img/000000029506.png,experiment,q,q,877.0133595000007
2,22,Female,Right,95,Block 1,1.1738144000046304,0.05,true,cat,cat,occlusion,control,mask,partial viewing,many small,Stimulus\all_stim\occlusion\partialviewing\manysmall\control\manysmall_partialViewing_control_cat4.png,mask_img/000000038479.png,experiment,o,o,878.9727088
2,22,Female,Right,96,Block 1,1.4263693999964744,0.1,true,building,building,occlusion,control,mask,partial viewing,few large,Stimulus\all_stim\occlusion\partialviewing\fewlarge\control\fewlarge_partialViewing_control_building1.png,mask_img/000000003084.png,experiment,w,w,881.4210294000004
2,22,Female,Right,97,Block 1,1.1112480000010692,0.025,true,tree,tree,occlusion,control,mask,partial viewing,many small,Stimulus\all_stim\occlusion\partialviewing\manysmall\control\manysmall_partialViewing_control_tree8.png,mask_img/000000041577.png,experiment,e,e,883.3172188000026
2,22,Female,Right,98,Block 1,2.1989765999969677,0.025,true,banana,banana,occlusion,low,mask,partial viewing,few large,Stimulus\all_stim\occlusion\partialviewing\fewlarge\low\fewlarge_partialViewing_low_banana6.png,mask_img/000000023137.png,experiment,u,u,886.2773135000025
2,22,Female,Right,99,Block 1,1.0629421999983606,0.1,true,building,building,occlusion,low,mask,partial viewing,few large,Stimulus\all_stim\occlusion\partialviewing\fewlarge\low\fewlarge_partialViewing_low_building1.png,mask_img/000000024552.png,experiment,w,w,888.3245114000019
2,22,Female,Right,100,Block 1,1.117727000004379,0.1,true,cat,cat,occlusion,low,mask,partial viewing,many small,Stimulus\all_stim\occlusion\partialviewing\manysmall\low\manysmall_partialViewing_low_cat7.png,mask_img/000000060158.png,experiment,o,o,890.3648854999992
2,22,Female,Right,101,Block 1,1.190301399998134,0.1,false,person,cat,occlusion,low,mask,partial viewing,few large,Stimulus\all_stim\occlusion\partialviewing\fewlarge\low\fewlarge_partialViewing_low_person5.png,mask_img/000000029964.png,experiment,o,q,892.668816999998
2,22,Female,Right,102,Block 1,1.5128044000011869,0.1,false,bird,tree,occlusion,high,mask,partial viewing,few large,Stimulus\all_stim\occlusion\partialviewing\fewlarge\high\fewlarge_partialViewing_high_bird6.png,mask_img/000000013944.png,experiment,e,i,895.0054743000001
2,22,Female,Right,103,Block 1,0.9636128999991342,0.025,true,cat,cat,occlusion,control,mask,partial viewing,many small,Stimulus\all_stim\occlusion\partialviewing\manysmall\control\manysmall_partialViewing_control_cat10.png,mask_img/000000038178.png,experiment,o,o,896.8207057000036
2,22,Female,Right,104,Block 1,0.9510298000022885,0.05,true,cat,cat,occlusion,control,mask,partial viewing,many small,Stimulus\all_stim\occlusion\partialviewing\manysmall\control\manysmall_partialViewing_control_cat9.png,mask_img/000000038862.png,experiment,o,o,898.8126695000028
2,22,Female,Right,105,Block 1,1.4098796000034781,0.1,true,building,building,occlusion,control,mask,partial viewing,few large,Stimulus\all_stim\occlusion\partialviewing\fewlarge\control\fewlarge_partialViewing_control_building7.png,mask_img/000000004936.png,experiment,w,w,901.2216914000019
2,22,Female,Right,106,Block 1,1.3310688999990816,0.025,true,building,building,occlusion,low,mask,partial viewing,many small,Stimulus\all_stim\occlusion\partialviewing\manysmall\low\manysmall_partialViewing_low_building7.png,mask_img/000000058021.png,experiment,w,w,903.6528332000016
2,22,Female,Right,107,Block 1,1.2869569999966188,0.025,false,person,cat,occlusion,low,mask,partial viewing,many small,Stimulus\all_stim\occlusion\partialviewing\manysmall\low\manysmall_partialViewing_low_person7.png,mask_img/000000062350.png,experiment,o,q,905.8446303000019
2,22,Female,Right,108,Block 1,2.062495999998646,0.05,false,firehydrant,building,occlusion,high,mask,partial viewing,many small,Stimulus\all_stim\occlusion\partialviewing\manysmall\high\manysmall_partialViewing_high_firehydrant9.png,mask_img/000000051164.png,experiment,w,r,908.8688120000006
2,22,Female,Right,109,Block 1,1.1165173999979743,0.1,true,tree,tree,occlusion,low,mask,partial viewing,few large,Stimulus\all_stim\occlusion\partialviewing\fewlarge\low\fewlarge_partialViewing_low_tree3.png,mask_img/000000031717.png,experiment,e,e,910.7726997999998
2,22,Female,Right,110,Block 1,1.0658888000034494,0.1,true,banana,banana,occlusion,low,mask,partial viewing,many small,Stimulus\all_stim\occlusion\partialviewing\manysmall\low\manysmall_partialViewing_low_banana2.png,mask_img/000000054759.png,experiment,u,u,912.6212594000026
2,22,Female,Right,111,Block 1,1.1810941999938223,0.1,true,building,building,occlusion,low,mask,partial viewing,many small,Stimulus\all_stim\occlusion\partialviewing\manysmall\low\manysmall_partialViewing_low_building8.png,mask_img/000000058073.png,experiment,w,w,914.9007788000017
2,22,Female,Right,112,Block 1,2.289524400002847,0.1,false,bird,bus,occlusion,high,mask,partial viewing,many small,Stimulus\all_stim\occlusion\partialviewing\manysmall\high\manysmall_partialViewing_high_bird5.png,mask_img/000000044437.png,experiment,p,i,918.1329564999978
2,22,Female,Right,113,Block 1,1.6772813999996288,0.1,true,tree,tree,occlusion,low,mask,partial viewing,few large,Stimulus\all_stim\occlusion\partialviewing\fewlarge\low\fewlarge_partialViewing_low_tree4.png,mask_img/000000032364.png,experiment,e,e,920.7168119999988
2,22,Female,Right,114,Block 1,1.6423751000038465,0.1,true,banana,banana,occlusion,low,mask,partial viewing,few large,Stimulus\all_stim\occlusion\partialviewing\fewlarge\low\fewlarge_partialViewing_low_banana7.png,mask_img/000000023511.png,experiment,u,u,923.4768802000035
2,22,Female,Right,115,Block 1,3.3150528999976814,0.1,true,cat,cat,occlusion,low,mask,partial viewing,few large,Stimulus\all_stim\occlusion\partialviewing\fewlarge\low\fewlarge_partialViewing_low_cat8.png,mask_img/000000028171.png,experiment,o,o,927.9091847000018
2,22,Female,Right,116,Block 1,1.4152692999996361,0.1,true,tree,tree,occlusion,low,mask,partial viewing,many small,Stimulus\all_stim\occlusion\partialviewing\manysmall\low\manysmall_partialViewing_low_tree6.png,mask_img/000000063715.png,experiment,e,e,929.9970691999988
2,22,Female,Right,117,Block 1,2.1540686000007554,0.05,true,building,building,occlusion,high,mask,partial viewing,many small,Stimulus\all_stim\occlusion\partialviewing\manysmall\high\manysmall_partialViewing_high_building10.png,mask_img/000000044989.png,experiment,w,w,933.101267099999
2,22,Female,Right,118,Block 1,1.6499263000005158,0.025,true,tree,tree,occlusion,control,mask,partial viewing,many small,Stimulus\all_stim\occlusion\partialviewing\manysmall\control\manysmall_partialViewing_control_tree3.png,mask_img/000000041014.png,experiment,e,e,935.6930355000004
2,22,Female,Right,119,Block 1,1.0558052999986103,0.1,true,building,building,occlusion,control,mask,partial viewing,many small,Stimulus\all_stim\occlusion\partialviewing\manysmall\control\manysmall_partialViewing_control_building4.png,mask_img/000000035985.png,experiment,w,w,937.7249472999974
2,22,Female,Right,120,Block 1,4.523922399996081,0.025,false,firehydrant,cat,occlusion,high,mask,partial viewing,few large,Stimulus\all_stim\occlusion\partialviewing\fewlarge\high\fewlarge_partialViewing_high_firehydrant3.png,mask_img/000000018864.png,experiment,o,r,942.9090051000021
2,22,Female,Right,121,Block 1,1.4831823000058648,0.025,false,bus,building,occlusion,high,mask,partial viewing,many small,Stimulus\all_stim\occlusion\partialviewing\manysmall\high\manysmall_partialViewing_high_bus5.png,mask_img/000000047395.png,experiment,w,p,945.2286587999988
2,22,Female,Right,122,Block 1,2.1276496999998926,0.025,true,bird,bird,occlusion,low,mask,partial viewing,few large,Stimulus\all_stim\occlusion\partialviewing\fewlarge\low\fewlarge_partialViewing_low_bird5.png,mask_img/000000024239.png,experiment,i,i,948.4287433999998
2,22,Female,Right,123,Block 1,1.000856600003317,0.1,true,bus,bus,occlusion,control,mask,partial viewing,many small,Stimulus\all_stim\occlusion\partialviewing\manysmall\control\manysmall_partialViewing_control_bus10.png,mask_img/000000036482.png,experiment,p,p,950.1569572000008
2,22,Female,Right,124,Block 1,1.2396529999969061,0.025,false,cat,building,occlusion,high,mask,partial viewing,few large,Stimulus\all_stim\occlusion\partialviewing\fewlarge\high\fewlarge_partialViewing_high_cat8.png,mask_img/000000017791.png,experiment,w,o,952.2450927000027
2,22,Female,Right,125,Block 1,1.4491779999952996,0.1,true,firehydrant,firehydrant,occlusion,control,mask,partial viewing,many small,Stimulus\all_stim\occlusion\partialviewing\manysmall\control\manysmall_partialViewing_control_firehydrant6.png,mask_img/000000039406.png,experiment,r,r,954.5651920000018
2,22,Female,Right,126,Block 1,1.3551915999996709,0.025,true,person,person,occlusion,low,mask,partial viewing,few large,Stimulus\all_stim\occlusion\partialviewing\fewlarge\low\fewlarge_partialViewing_low_person7.png,mask_img/000000030526.png,experiment,q,q,956.900733100003
2,22,Female,Right,127,Block 1,1.0937960000010207,0.1,true,person,person,occlusion,high,mask,partial viewing,few large,Stimulus\all_stim\occlusion\partialviewing\fewlarge\high\fewlarge_partialViewing_high_person8.png,mask_img/000000020570.png,experiment,q,q,958.9486948999984
2,22,Female,Right,128,Block 1,1.18500800000038,0.025,true,tree,tree,occlusion,control,mask,partial viewing,few large,Stimulus\all_stim\occlusion\partialviewing\fewlarge\control\fewlarge_partialViewing_control_tree6.png,mask_img/000000011328.png,experiment,e,e,960.9727964999984
2,22,Female,Right,129,Block 1,2.435297399999399,0.1,false,person,firehydrant,occlusion,high,mask,partial viewing,many small,Stimulus\all_stim\occlusion\partialviewing\manysmall\high\manysmall_partialViewing_high_person1.png,mask_img/000000051310.png,experiment,r,q,964.3010336000007
2,22,Female,Right,130,Block 1,1.1893756999998004,0.05,true,building,building,occlusion,low,mask,partial viewing,many small,Stimulus\all_stim\occlusion\partialviewing\manysmall\low\manysmall_partialViewing_low_building5.png,mask_img/000000057930.png,experiment,w,w,966.6062239000021
2,22,Female,Right,131,Block 1,1.6771547999960603,0.1,true,bird,bird,occlusion,control,mask,partial viewing,few large,Stimulus\all_stim\occlusion\partialviewing\fewlarge\control\fewlarge_partialViewing_control_bird3.png,mask_img/000000001810.png,experiment,i,i,969.174700100004
2,22,Female,Right,132,Block 1,1.5169078999970225,0.025,true,building,building,occlusion,high,mask,partial viewing,many small,Stimulus\all_stim\occlusion\partialviewing\manysmall\high\manysmall_partialViewing_high_building6.png,mask_img/000000046155.png,experiment,w,w,971.3813109999974
2,22,Female,Right,133,Block 1,1.0476269999999204,0.1,true,building,building,occlusion,low,mask,partial viewing,few large,Stimulus\all_stim\occlusion\partialviewing\fewlarge\low\fewlarge_partialViewing_low_building5.png,mask_img/000000025034.png,experiment,w,w,973.5252013999998
2,22,Female,Right,134,Block 1,1.0065000000031432,0.025,true,banana,banana,occlusion,low,mask,partial viewing,few large,Stimulus\all_stim\occlusion\partialviewing\fewlarge\low\fewlarge_partialViewing_low_banana2.png,mask_img/000000022983.png,experiment,u,u,975.5089710000029
2,22,Female,Right,135,Block 1,1.1982601999989129,0.05,true,firehydrant,firehydrant,occlusion,control,mask,partial viewing,many small,Stimulus\all_stim\occlusion\partialviewing\manysmall\control\manysmall_partialViewing_control_firehydrant7.png,mask_img/000000039475.png,experiment,r,r,977.7885895
2,22,Female,Right,136,Block 1,1.5550817999974242,0.1,false,bird,banana,occlusion,control,mask,partial viewing,many small,Stimulus\all_stim\occlusion\partialviewing\manysmall\control\manysmall_partialViewing_control_bird9.png,mask_img/000000035514.png,experiment,u,i,980.0450406000018
2,22,Female,Right,137,Block 1,1.439578799996525,0.025,false,bus,building,occlusion,high,mask,partial viewing,few large,Stimulus\all_stim\occlusion\partialviewing\fewlarge\high\fewlarge_partialViewing_high_bus2.png,mask_img/000000015862.png,experiment,w,p,982.3251091999991
2,22,Female,Right,138,Block 1,0.9640810999990208,0.025,true,building,building,occlusion,control,mask,partial viewing,few large,Stimulus\all_stim\occlusion\partialviewing\fewlarge\control\fewlarge_partialViewing_control_building3.png,mask_img/000000003694.png,experiment,w,w,984.1170710000006
2,22,Female,Right,139,Block 1,1.5405457000015303,0.1,true,tree,tree,occlusion,high,mask,partial viewing,few large,Stimulus\all_stim\occlusion\partialviewing\fewlarge\high\fewlarge_partialViewing_high_tree7.png,mask_img/000000022256.png,experiment,e,e,986.7570839999971
2,22,Female,Right,140,Block 1,1.7105816999974195,0.025,true,cat,cat,occlusion,low,mask,partial viewing,few large,Stimulus\all_stim\occlusion\partialviewing\fewlarge\low\fewlarge_partialViewing_low_cat4.png,mask_img/000000027675.png,experiment,o,o,989.3969634000023
2,22,Female,Right,141,Block 1,1.3081406999990577,0.05,false,firehydrant,building,occlusion,high,mask,partial viewing,many small,Stimulus\all_stim\occlusion\partialviewing\manysmall\high\manysmall_partialViewing_high_firehydrant5.png,mask_img/000000050496.png,experiment,w,r,991.3888466999997
2,22,Female,Right,142,Block 1,1.9330400000035297,0.1,true,bird,bird,occlusion,control,mask,partial viewing,many small,Stimulus\all_stim\occlusion\partialviewing\manysmall\control\manysmall_partialViewing_control_bird8.png,mask_img/000000035190.png,experiment,i,i,994.2772534000032
2,22,Female,Right,143,Block 1,0.9958069999993313,0.05,true,cat,cat,occlusion,low,mask,partial viewing,few large,Stimulus\all_stim\occlusion\partialviewing\fewlarge\low\fewlarge_partialViewing_low_cat3.png,mask_img/000000027556.png,experiment,o,o,996.0847627000039
2,22,Female,Right,144,Block 1,2.5760986999957822,0.025,false,banana,bird,occlusion,high,mask,partial viewing,few large,Stimulus\all_stim\occlusion\partialviewing\fewlarge\high\fewlarge_partialViewing_high_banana5.png,mask_img/000000012543.png,experiment,i,u,1041.6766853000008
2,22,Female,Right,145,Block 2,1.1583864999993239,0.05,false,bus,building,occlusion,high,mask,partial viewing,few large,Stimulus\all_stim\occlusion\partialviewing\fewlarge\high\fewlarge_partialViewing_high_bus9.png,mask_img/000000016764.png,experiment,w,p,1043.7407877000005
2,22,Female,Right,146,Block 2,1.8680983999947784,0.025,false,banana,bird,occlusion,high,mask,partial viewing,few large,Stimulus\all_stim\occlusion\partialviewing\fewlarge\high\fewlarge_partialViewing_high_banana9.png,mask_img/000000012999.png,experiment,i,u,1046.7010809999992
2,22,Female,Right,147,Block 2,0.993048500000441,0.05,true,bird,bird,occlusion,low,mask,partial viewing,many small,Stimulus\all_stim\occlusion\partialviewing\manysmall\low\manysmall_partialViewing_low_bird8.png,mask_img/000000056137.png,experiment,i,i,1048.7334035000022
2,22,Female,Right,148,Block 2,3.02915340000618,0.05,false,firehydrant,tree,occlusion,low,mask,partial viewing,many small,Stimulus\all_stim\occlusion\partialviewing\manysmall\low\manysmall_partialViewing_low_firehydrant8.png,mask_img/000000061512.png,experiment,e,r,1052.6768856999988
2,22,Female,Right,149,Block 2,1.4746864999979152,0.025,false,bird,building,occlusion,high,mask,partial viewing,many small,Stimulus\all_stim\occlusion\partialviewing\manysmall\high\manysmall_partialViewing_high_bird6.png,mask_img/000000044523.png,experiment,w,i,1055.0613764000009
2,22,Female,Right,150,Block 2,2.0156906000047456,0.05,false,person,building,occlusion,high,mask,partial viewing,many small,Stimulus\all_stim\occlusion\partialviewing\manysmall\high\manysmall_partialViewing_high_person5.png,mask_img/000000052250.png,experiment,w,q,1058.0847778000025
2,22,Female,Right,151,Block 2,1.2033195000039996,0.1,true,tree,tree,occlusion,control,mask,partial viewing,many small,Stimulus\all_stim\occlusion\partialviewing\manysmall\control\manysmall_partialViewing_control_tree7.png,mask_img/000000041434.png,experiment,e,e,1059.9971270000024
2,22,Female,Right,152,Block 2,1.233885100002226,0.1,false,bird,banana,occlusion,low,mask,partial viewing,few large,Stimulus\all_stim\occlusion\partialviewing\fewlarge\low\fewlarge_partialViewing_low_bird8.png,mask_img/000000024404.png,experiment,u,i,1061.9569773999974
2,22,Female,Right,153,Block 2,3.4651184000031208,0.025,false,banana,bird,occlusion,control,mask,partial viewing,few large,Stimulus\all_stim\occlusion\partialviewing\fewlarge\control\fewlarge_partialViewing_control_banana1.png,mask_img/000000000042.png,experiment,i,u,1066.3810776000028
2,22,Female,Right,154,Block 2,1.2289388999997755,0.1,true,banana,banana,occlusion,control,mask,partial viewing,many small,Stimulus\all_stim\occlusion\partialviewing\manysmall\control\manysmall_partialViewing_control_banana5.png,mask_img/000000033669.png,experiment,u,u,1068.437021400001
2,22,Female,Right,155,Block 2,0.9322230999969179,0.025,true,banana,banana,occlusion,low,mask,partial viewing,few large,Stimulus\all_stim\occlusion\partialviewing\fewlarge\low\fewlarge_partialViewing_low_banana4.png,mask_img/000000023015.png,experiment,u,u,1070.3329986000026
2,22,Female,Right,156,Block 2,1.5513024999963818,0.025,true,tree,tree,occlusion,control,mask,partial viewing,few large,Stimulus\all_stim\occlusion\partialviewing\fewlarge\control\fewlarge_partialViewing_control_tree4.png,mask_img/000000010969.png,experiment,e,e,1072.8772150000004
2,22,Female,Right,157,Block 2,1.7686730999994325,0.025,true,banana,banana,occlusion,low,mask,partial viewing,many small,Stimulus\all_stim\occlusion\partialviewing\manysmall\low\manysmall_partialViewing_low_banana4.png,mask_img/000000055202.png,experiment,u,u,1075.517134200003
2,22,Female,Right,158,Block 2,1.3711702000000514,0.025,true,bus,bus,occlusion,low,mask,partial viewing,few large,Stimulus\all_stim\occlusion\partialviewing\fewlarge\low\fewlarge_partialViewing_low_bus5.png,mask_img/000000026497.png,experiment,p,p,1077.876642000003
2,22,Female,Right,159,Block 2,2.1065159999998286,0.1,false,bird,cat,occlusion,high,mask,partial viewing,many small,Stimulus\all_stim\occlusion\partialviewing\manysmall\high\manysmall_partialViewing_high_bird6.png,mask_img/000000044523.png,experiment,o,i,1081.1329687000034
2,22,Female,Right,160,Block 2,1.2552523000049405,0.05,true,cat,cat,occlusion,high,mask,partial viewing,many small,Stimulus\all_stim\occlusion\partialviewing\manysmall\high\manysmall_partialViewing_high_cat10.png,mask_img/000000048929.png,experiment,o,o,1083.3086679000044
2,22,Female,Right,161,Block 2,1.6666231000053813,0.1,true,banana,banana,occlusion,low,mask,partial viewing,few large,Stimulus\all_stim\occlusion\partialviewing\fewlarge\low\fewlarge_partialViewing_low_banana9.png,mask_img/000000023967.png,experiment,u,u,1085.7730517000018
2,22,Female,Right,162,Block 2,1.2442888999939896,0.1,true,person,person,occlusion,control,mask,partial viewing,many small,Stimulus\all_stim\occlusion\partialviewing\manysmall\control\manysmall_partialViewing_control_person2.png,mask_img/000000039971.png,experiment,q,q,1088.0052529000022
2,22,Female,Right,163,Block 2,1.8950863999998546,0.025,true,banana,banana,occlusion,low,mask,partial viewing,many small,Stimulus\all_stim\occlusion\partialviewing\manysmall\low\manysmall_partialViewing_low_banana1.png,mask_img/000000054532.png,experiment,u,u,1090.820886900001
2,22,Female,Right,164,Block 2,1.3477484000031836,0.025,true,tree,tree,occlusion,low,mask,partial viewing,few large,Stimulus\all_stim\occlusion\partialviewing\fewlarge\low\fewlarge_partialViewing_low_tree1.png,mask_img/000000031053.png,experiment,e,e,1092.8532667000036
2,22,Female,Right,165,Block 2,2.5222777999952086,0.025,false,firehydrant,cat,occlusion,high,mask,partial viewing,few large,Stimulus\all_stim\occlusion\partialviewing\fewlarge\high\fewlarge_partialViewing_high_firehydrant1.png,mask_img/000000017944.png,experiment,o,r,1096.1891851000037
2,22,Female,Right,166,Block 2,2.1431120000052033,0.1,false,banana,bird,occlusion,high,mask,partial viewing,many small,Stimulus\all_stim\occlusion\partialviewing\manysmall\high\manysmall_partialViewing_high_banana10.png,mask_img/000000042196.png,experiment,i,u,1099.2133297999972
2,22,Female,Right,167,Block 2,1.5116778000010527,0.025,true,person,person,occlusion,high,mask,partial viewing,many small,Stimulus\all_stim\occlusion\partialviewing\manysmall\high\manysmall_partialViewing_high_person1.png,mask_img/000000051310.png,experiment,q,q,1101.6853037999972
2,22,Female,Right,168,Block 2,1.799804900001618,0.025,false,cat,banana,occlusion,high,mask,partial viewing,few large,Stimulus\all_stim\occlusion\partialviewing\fewlarge\high\fewlarge_partialViewing_high_cat7.png,mask_img/000000017580.png,experiment,u,o,1104.4212812000042
2,22,Female,Right,169,Block 2,1.2397859000047902,0.1,true,firehydrant,firehydrant,occlusion,low,mask,partial viewing,many small,Stimulus\all_stim\occlusion\partialviewing\manysmall\low\manysmall_partialViewing_low_firehydrant2.png,mask_img/000000060548.png,experiment,r,r,1106.5809394000025
2,22,Female,Right,170,Block 2,1.136677000002237,0.05,true,bus,bus,occlusion,high,mask,partial viewing,many small,Stimulus\all_stim\occlusion\partialviewing\manysmall\high\manysmall_partialViewing_high_bus5.png,mask_img/000000047395.png,experiment,p,p,1108.7409559000007
2,22,Female,Right,171,Block 2,0.8468091000031563,0.05,true,person,person,occlusion,low,mask,partial viewing,many small,Stimulus\all_stim\occlusion\partialviewing\manysmall\low\manysmall_partialViewing_low_person10.png,mask_img/000000061838.png,experiment,q,q,1110.4685762000008
2,22,Female,Right,172,Block 2,0.8658530000029714,0.025,true,person,person,occlusion,control,mask,partial viewing,many small,Stimulus\all_stim\occlusion\partialviewing\manysmall\control\manysmall_partialViewing_control_person10.png,mask_img/000000039778.png,experiment,q,q,1112.3821506000022
2,22,Female,Right,173,Block 2,1.7335176000051433,0.1,true,tree,tree,occlusion,control,mask,partial viewing,many small,Stimulus\all_stim\occlusion\partialviewing\manysmall\control\manysmall_partialViewing_control_tree1.png,mask_img/000000040886.png,experiment,e,e,1115.0773372999975
2,22,Female,Right,174,Block 2,1.0412846999970498,0.1,true,tree,tree,occlusion,control,mask,partial viewing,few large,Stimulus\all_stim\occlusion\partialviewing\fewlarge\control\fewlarge_partialViewing_control_tree7.png,mask_img/000000011504.png,experiment,e,e,1117.2291157
2,22,Female,Right,175,Block 2,1.3060269999987213,0.05,true,building,building,occlusion,control,mask,partial viewing,few large,Stimulus\all_stim\occlusion\partialviewing\fewlarge\control\fewlarge_partialViewing_control_building1.png,mask_img/000000003084.png,experiment,w,w,1119.365361199998
2,22,Female,Right,176,Block 2,2.361278999997012,0.1,false,person,building,occlusion,high,mask,partial viewing,many small,Stimulus\all_stim\occlusion\partialviewing\manysmall\high\manysmall_partialViewing_high_person8.png,mask_img/000000052606.png,experiment,w,q,1122.4932017000028
2,22,Female,Right,177,Block 2,2.012473399998271,0.05,true,bird,bird,occlusion,control,mask,partial viewing,few large,Stimulus\all_stim\occlusion\partialviewing\fewlarge\control\fewlarge_partialViewing_control_bird9.png,mask_img/000000002892.png,experiment,i,i,1125.5809751999986
2,22,Female,Right,178,Block 2,1.5367293000017526,0.025,true,building,building,occlusion,control,mask,partial viewing,many small,Stimulus\all_stim\occlusion\partialviewing\manysmall\control\manysmall_partialViewing_control_building8.png,mask_img/000000036091.png,experiment,w,w,1127.9330319
2,22,Female,Right,179,Block 2,1.6914246000014828,0.05,true,firehydrant,firehydrant,occlusion,control,mask,partial viewing,few large,Stimulus\all_stim\occlusion\partialviewing\fewlarge\control\fewlarge_partialViewing_control_firehydrant4.png,mask_img/000000007952.png,experiment,r,r,1130.669094900004
2,22,Female,Right,180,Block 2,1.1677313999971375,0.05,true,bird,bird,occlusion,high,mask,partial viewing,few large,Stimulus\all_stim\occlusion\partialviewing\fewlarge\high\fewlarge_partialViewing_high_bird4.png,mask_img/000000013721.png,experiment,i,i,1132.6768690000026
2,22,Female,Right,181,Block 2,1.4777310999998008,0.1,true,tree,tree,occlusion,control,mask,partial viewing,many small,Stimulus\all_stim\occlusion\partialviewing\manysmall\control\manysmall_partialViewing_control_tree2.png,mask_img/000000041008.png,experiment,e,e,1135.0849595000036
2,22,Female,Right,182,Block 2,1.1955727999957162,0.1,true,bus,bus,occlusion,low,mask,partial viewing,many small,Stimulus\all_stim\occlusion\partialviewing\manysmall\low\manysmall_partialViewing_low_bus4.png,mask_img/000000058701.png,experiment,p,p,1137.3812841000035
2,22,Female,Right,183,Block 2,1.236236299999291,0.05,true,firehydrant,firehydrant,occlusion,low,mask,partial viewing,many small,Stimulus\all_stim\occlusion\partialviewing\manysmall\low\manysmall_partialViewing_low_firehydrant1.png,mask_img/000000060464.png,experiment,r,r,1139.276414699998
2,22,Female,Right,184,Block 2,1.2487936000034097,0.025,true,cat,cat,occlusion,control,mask,partial viewing,few large,Stimulus\all_stim\occlusion\partialviewing\fewlarge\control\fewlarge_partialViewing_control_cat10.png,mask_img/000000006481.png,experiment,o,o,1141.1889166999972
2,22,Female,Right,185,Block 2,1.10241049999604,0.05,true,building,building,occlusion,high,mask,partial viewing,few large,Stimulus\all_stim\occlusion\partialviewing\fewlarge\high\fewlarge_partialViewing_high_building8.png,mask_img/000000015366.png,experiment,w,w,1143.4051037000027
2,22,Female,Right,186,Block 2,1.054756700003054,0.05,true,banana,banana,occlusion,control,mask,partial viewing,many small,Stimulus\all_stim\occlusion\partialviewing\manysmall\control\manysmall_partialViewing_control_banana4.png,mask_img/000000033667.png,experiment,u,u,1145.4529908999975
2,22,Female,Right,187,Block 2,1.3508061999964411,0.1,false,bus,building,occlusion,high,mask,partial viewing,many small,Stimulus\all_stim\occlusion\partialviewing\manysmall\high\manysmall_partialViewing_high_bus3.png,mask_img/000000047229.png,experiment,w,p,1147.7331830999974
2,22,Female,Right,188,Block 2,1.2196158000006108,0.05,true,tree,tree,occlusion,control,mask,partial viewing,many small,Stimulus\all_stim\occlusion\partialviewing\manysmall\control\manysmall_partialViewing_control_tree4.png,mask_img/000000041022.png,experiment,e,e,1149.781193499999
2,22,Female,Right,189,Block 2,1.2956470999997691,0.025,true,bus,bus,occlusion,high,mask,partial viewing,many small,Stimulus\all_stim\occlusion\partialviewing\manysmall\high\manysmall_partialViewing_high_bus1.png,mask_img/000000046676.png,experiment,p,p,1151.916740200002
2,22,Female,Right,190,Block 2,1.7074938000005204,0.05,true,tree,tree,occlusion,high,mask,partial viewing,many small,Stimulus\all_stim\occlusion\partialviewing\manysmall\high\manysmall_partialViewing_high_tree8.png,mask_img/000000054334.png,experiment,e,e,1154.7172049
2,22,Female,Right,191,Block 2,1.1034062999970047,0.1,true,person,person,occlusion,low,mask,partial viewing,few large,Stimulus\all_stim\occlusion\partialviewing\fewlarge\low\fewlarge_partialViewing_low_person10.png,mask_img/000000029128.png,experiment,q,q,1156.9423098000043
2,22,Female,Right,192,Block 2,1.3470806999976048,0.05,true,tree,tree,occlusion,control,mask,partial viewing,many small,Stimulus\all_stim\occlusion\partialviewing\manysmall\control\manysmall_partialViewing_control_tree6.png,mask_img/000000041272.png,experiment,e,e,1159.1649713000006
2,22,Female,Right,193,Block 2,0.9997541999982786,0.025,false,bus,building,occlusion,high,mask,partial viewing,many small,Stimulus\all_stim\occlusion\partialviewing\manysmall\high\manysmall_partialViewing_high_bus7.png,mask_img/000000047471.png,experiment,w,p,1161.0368639000008
2,22,Female,Right,194,Block 2,1.014449499998591,0.1,true,bus,bus,occlusion,high,mask,partial viewing,few large,Stimulus\all_stim\occlusion\partialviewing\fewlarge\high\fewlarge_partialViewing_high_bus3.png,mask_img/000000015908.png,experiment,p,p,1162.685142800001
2,22,Female,Right,195,Block 2,1.8381554000006872,0.05,true,banana,banana,occlusion,control,mask,partial viewing,few large,Stimulus\all_stim\occlusion\partialviewing\fewlarge\control\fewlarge_partialViewing_control_banana8.png,mask_img/000000000690.png,experiment,u,u,1165.4770649999991
2,22,Female,Right,196,Block 2,1.5865051000000676,0.05,true,bird,bird,occlusion,low,mask,partial viewing,few large,Stimulus\all_stim\occlusion\partialviewing\fewlarge\low\fewlarge_partialViewing_low_bird3.png,mask_img/000000024157.png,experiment,i,i,1168.0691880000013
2,22,Female,Right,197,Block 2,1.535999500003527,0.025,true,tree,tree,occlusion,high,mask,partial viewing,many small,Stimulus\all_stim\occlusion\partialviewing\manysmall\high\manysmall_partialViewing_high_tree6.png,mask_img/000000053539.png,experiment,e,e,1170.5493109000017
2,22,Female,Right,198,Block 2,3.1156055000028573,0.1,false,bird,banana,occlusion,high,mask,partial viewing,many small,Stimulus\all_stim\occlusion\partialviewing\manysmall\high\manysmall_partialViewing_high_bird7.png,mask_img/000000044580.png,experiment,u,i,1174.7572347000023
2,22,Female,Right,199,Block 2,1.0839209999976447,0.1,true,firehydrant,firehydrant,occlusion,low,mask,partial viewing,many small,Stimulus\all_stim\occlusion\partialviewing\manysmall\low\manysmall_partialViewing_low_firehydrant4.png,mask_img/000000060610.png,experiment,r,r,1176.517608000002
2,22,Female,Right,200,Block 2,1.1361288000043714,0.025,true,tree,tree,occlusion,low,mask,partial viewing,many small,Stimulus\all_stim\occlusion\partialviewing\manysmall\low\manysmall_partialViewing_low_tree1.png,mask_img/000000062690.png,experiment,e,e,1178.7648780000018
2,22,Female,Right,201,Block 2,1.112318299994513,0.05,true,tree,tree,occlusion,low,mask,partial viewing,many small,Stimulus\all_stim\occlusion\partialviewing\manysmall\low\manysmall_partialViewing_low_tree1.png,mask_img/000000062690.png,experiment,e,e,1180.8528740000038
2,22,Female,Right,202,Block 2,0.8541263000006438,0.1,true,person,person,occlusion,control,mask,partial viewing,few large,Stimulus\all_stim\occlusion\partialviewing\fewlarge\control\fewlarge_partialViewing_control_person1.png,mask_img/000000008341.png,experiment,q,q,1182.8292390999995
2,22,Female,Right,203,Block 2,0.928861100001086,0.1,true,building,building,occlusion,control,mask,partial viewing,many small,Stimulus\all_stim\occlusion\partialviewing\manysmall\control\manysmall_partialViewing_control_building8.png,mask_img/000000036091.png,experiment,w,w,1184.7652682999978
2,22,Female,Right,204,Block 2,1.1779994999960763,0.1,true,firehydrant,firehydrant,occlusion,control,mask,partial viewing,few large,Stimulus\all_stim\occlusion\partialviewing\fewlarge\control\fewlarge_partialViewing_control_firehydrant10.png,mask_img/000000007758.png,experiment,r,r,1186.8928463999982
2,22,Female,Right,205,Block 2,0.905438800000411,0.025,true,bus,bus,occlusion,control,mask,partial viewing,few large,Stimulus\all_stim\occlusion\partialviewing\fewlarge\control\fewlarge_partialViewing_control_bus2.png,mask_img/000000005359.png,experiment,p,p,1188.444980100001
2,22,Female,Right,206,Block 2,1.0918525000015507,0.05,true,banana,banana,occlusion,low,mask,partial viewing,many small,Stimulus\all_stim\occlusion\partialviewing\manysmall\low\manysmall_partialViewing_low_banana7.png,mask_img/000000055594.png,experiment,u,u,1190.5891448999973
2,22,Female,Right,207,Block 2,1.264763999999559,0.025,true,bird,bird,occlusion,low,mask,partial viewing,many small,Stimulus\all_stim\occlusion\partialviewing\manysmall\low\manysmall_partialViewing_low_bird6.png,mask_img/000000056007.png,experiment,i,i,1192.9730702000015
2,22,Female,Right,208,Block 2,0.9961853999993764,0.05,true,person,person,occlusion,control,mask,partial viewing,few large,Stimulus\all_stim\occlusion\partialviewing\fewlarge\control\fewlarge_partialViewing_control_person7.png,mask_img/000000009648.png,experiment,q,q,1194.8928584000023
2,22,Female,Right,209,Block 2,0.8451007000039681,0.05,true,building,building,occlusion,low,mask,partial viewing,few large,Stimulus\all_stim\occlusion\partialviewing\fewlarge\low\fewlarge_partialViewing_low_building10.png,mask_img/000000024591.png,experiment,w,w,1196.3891990999982
2,22,Female,Right,210,Block 2,1.1415654000011273,0.05,true,bus,bus,occlusion,low,mask,partial viewing,few large,Stimulus\all_stim\occlusion\partialviewing\fewlarge\low\fewlarge_partialViewing_low_bus3.png,mask_img/000000025997.png,experiment,p,p,1198.1888269999981
2,22,Female,Right,211,Block 2,1.2477537999948254,0.025,true,bus,bus,occlusion,low,mask,partial viewing,many small,Stimulus\all_stim\occlusion\partialviewing\manysmall\low\manysmall_partialViewing_low_bus9.png,mask_img/000000058910.png,experiment,p,p,1200.5009232000011
2,22,Female,Right,212,Block 2,1.6522332000022288,0.025,true,building,building,occlusion,low,mask,partial viewing,many small,Stimulus\all_stim\occlusion\partialviewing\manysmall\low\manysmall_partialViewing_low_building2.png,mask_img/000000057551.png,experiment,w,w,1203.0767636000019
2,22,Female,Right,213,Block 2,2.1091096000018297,0.05,true,tree,tree,occlusion,control,mask,partial viewing,few large,Stimulus\all_stim\occlusion\partialviewing\fewlarge\control\fewlarge_partialViewing_control_tree10.png,mask_img/000000010414.png,experiment,e,e,1205.8448795000004
2,22,Female,Right,214,Block 2,1.8611657000001287,0.1,true,cat,cat,occlusion,low,mask,partial viewing,few large,Stimulus\all_stim\occlusion\partialviewing\fewlarge\low\fewlarge_partialViewing_low_cat6.png,mask_img/000000027764.png,experiment,o,o,1208.445401500001
2,22,Female,Right,215,Block 2,1.527941299995291,0.1,false,firehydrant,cat,occlusion,high,mask,partial viewing,few large,Stimulus\all_stim\occlusion\partialviewing\fewlarge\high\fewlarge_partialViewing_high_firehydrant1.png,mask_img/000000017944.png,experiment,o,r,1210.6292379000006
2,22,Female,Right,216,Block 2,0.9446712999997544,0.05,true,person,person,occlusion,control,mask,partial viewing,many small,Stimulus\all_stim\occlusion\partialviewing\manysmall\control\manysmall_partialViewing_control_person10.png,mask_img/000000039778.png,experiment,q,q,1212.3813515000002
2,22,Female,Right,217,Block 2,1.4037553000016487,0.025,true,bird,bird,occlusion,low,mask,partial viewing,many small,Stimulus\all_stim\occlusion\partialviewing\manysmall\low\manysmall_partialViewing_low_bird10.png,mask_img/000000055733.png,experiment,i,i,1214.7724425999986
2,22,Female,Right,218,Block 2,0.8683906000005663,0.025,true,bus,bus,occlusion,control,mask,partial viewing,few large,Stimulus\all_stim\occlusion\partialviewing\fewlarge\control\fewlarge_partialViewing_control_bus3.png,mask_img/000000005418.png,experiment,p,p,1216.5805063000007
2,22,Female,Right,219,Block 2,1.2002431000000797,0.025,false,bus,building,occlusion,high,mask,partial viewing,few large,Stimulus\all_stim\occlusion\partialviewing\fewlarge\high\fewlarge_partialViewing_high_bus7.png,mask_img/000000016238.png,experiment,w,p,1218.469046600003
2,22,Female,Right,220,Block 2,1.0862343000044348,0.05,true,tree,tree,occlusion,high,mask,partial viewing,many small,Stimulus\all_stim\occlusion\partialviewing\manysmall\high\manysmall_partialViewing_high_tree4.png,mask_img/000000053143.png,experiment,e,e,1220.3891235999981
2,22,Female,Right,221,Block 2,1.173478199998499,0.025,true,cat,cat,occlusion,low,mask,partial viewing,few large,Stimulus\all_stim\occlusion\partialviewing\fewlarge\low\fewlarge_partialViewing_low_cat2.png,mask_img/000000027371.png,experiment,o,o,1222.508857599998
2,22,Female,Right,222,Block 2,2.4551828000039677,0.1,true,bird,bird,occlusion,low,mask,partial viewing,few large,Stimulus\all_stim\occlusion\partialviewing\fewlarge\low\fewlarge_partialViewing_low_bird3.png,mask_img/000000024157.png,experiment,i,i,1225.8930481999996
2,22,Female,Right,223,Block 2,1.834118300001137,0.05,true,tree,tree,occlusion,high,mask,partial viewing,few large,Stimulus\all_stim\occlusion\partialviewing\fewlarge\high\fewlarge_partialViewing_high_tree8.png,mask_img/000000022355.png,experiment,e,e,1228.8454956999994
2,22,Female,Right,224,Block 2,0.9927506000021822,0.05,false,bird,person,occlusion,high,mask,partial viewing,few large,Stimulus\all_stim\occlusion\partialviewing\fewlarge\high\fewlarge_partialViewing_high_bird1.png,mask_img/000000013061.png,experiment,q,i,1230.494948200001
2,22,Female,Right,225,Block 2,1.8714122000019415,0.05,true,building,building,occlusion,control,mask,partial viewing,few large,Stimulus\all_stim\occlusion\partialviewing\fewlarge\control\fewlarge_partialViewing_control_building9.png,mask_img/000000005131.png,experiment,w,w,1233.3653844
2,22,Female,Right,226,Block 2,1.532106599996041,0.025,true,building,building,occlusion,low,mask,partial viewing,many small,Stimulus\all_stim\occlusion\partialviewing\manysmall\low\manysmall_partialViewing_low_building3.png,mask_img/000000057646.png,experiment,w,w,1235.5971667999984
2,22,Female,Right,227,Block 2,1.0153191999997944,0.05,true,person,person,occlusion,low,mask,partial viewing,many small,Stimulus\all_stim\occlusion\partialviewing\manysmall\low\manysmall_partialViewing_low_person2.png,mask_img/000000061867.png,experiment,q,q,1237.628995500003
2,22,Female,Right,228,Block 2,1.782260399995721,0.1,false,cat,bird,occlusion,high,mask,partial viewing,many small,Stimulus\all_stim\occlusion\partialviewing\manysmall\high\manysmall_partialViewing_high_cat4.png,mask_img/000000049331.png,experiment,i,o,1240.2529909000004
2,22,Female,Right,229,Block 2,1.0057114000010188,0.1,true,cat,cat,occlusion,control,mask,partial viewing,few large,Stimulus\all_stim\occlusion\partialviewing\fewlarge\control\fewlarge_partialViewing_control_cat1.png,mask_img/000000006437.png,experiment,o,o,1242.293110999999
2,22,Female,Right,230,Block 2,1.1669072000004235,0.05,true,tree,tree,occlusion,high,mask,partial viewing,few large,Stimulus\all_stim\occlusion\partialviewing\fewlarge\high\fewlarge_partialViewing_high_tree4.png,mask_img/000000021981.png,experiment,e,e,1244.1409705999977
2,22,Female,Right,231,Block 2,1.2999810000037542,0.025,false,bird,building,occlusion,high,mask,partial viewing,many small,Stimulus\all_stim\occlusion\partialviewing\manysmall\high\manysmall_partialViewing_high_bird10.png,mask_img/000000044065.png,experiment,w,i,1246.2689686000012
2,22,Female,Right,232,Block 2,1.3248610000009649,0.025,true,tree,tree,occlusion,control,mask,partial viewing,many small,Stimulus\all_stim\occlusion\partialviewing\manysmall\control\manysmall_partialViewing_control_tree5.png,mask_img/000000041174.png,experiment,e,e,1248.309943799999
2,22,Female,Right,233,Block 2,1.1363136999934795,0.1,true,tree,tree,occlusion,high,mask,partial viewing,many small,Stimulus\all_stim\occlusion\partialviewing\manysmall\high\manysmall_partialViewing_high_tree10.png,mask_img/000000052818.png,experiment,e,e,1250.5656413000033
2,22,Female,Right,234,Block 2,1.2651962000018102,0.05,true,cat,cat,occlusion,control,mask,partial viewing,few large,Stimulus\all_stim\occlusion\partialviewing\fewlarge\control\fewlarge_partialViewing_control_cat2.png,mask_img/000000006489.png,experiment,o,o,1252.5093278999993
2,22,Female,Right,235,Block 2,1.0526949999984936,0.1,true,person,person,occlusion,low,mask,partial viewing,many small,Stimulus\all_stim\occlusion\partialviewing\manysmall\low\manysmall_partialViewing_low_person1.png,mask_img/000000061780.png,experiment,q,q,1254.4210485000003
2,22,Female,Right,236,Block 2,1.4255542999962927,0.05,true,cat,cat,occlusion,high,mask,partial viewing,few large,Stimulus\all_stim\occlusion\partialviewing\fewlarge\high\fewlarge_partialViewing_high_cat9.png,mask_img/000000017858.png,experiment,o,o,1256.893102599999
2,22,Female,Right,237,Block 2,1.3579914000001736,0.1,true,tree,tree,occlusion,high,mask,partial viewing,many small,Stimulus\all_stim\occlusion\partialviewing\manysmall\high\manysmall_partialViewing_high_tree4.png,mask_img/000000053143.png,experiment,e,e,1259.2689935000017
2,22,Female,Right,238,Block 2,1.0175115000020014,0.05,true,person,person,occlusion,low,mask,partial viewing,many small,Stimulus\all_stim\occlusion\partialviewing\manysmall\low\manysmall_partialViewing_low_person1.png,mask_img/000000061780.png,experiment,q,q,1261.1887618000037
2,22,Female,Right,239,Block 2,1.1517489000034402,0.1,true,firehydrant,firehydrant,occlusion,control,mask,partial viewing,many small,Stimulus\all_stim\occlusion\partialviewing\manysmall\control\manysmall_partialViewing_control_firehydrant5.png,mask_img/000000039211.png,experiment,r,r,1263.2292631000018
2,22,Female,Right,240,Block 2,1.0077405999982147,0.1,true,bus,bus,occlusion,high,mask,partial viewing,many small,Stimulus\all_stim\occlusion\partialviewing\manysmall\high\manysmall_partialViewing_high_bus8.png,mask_img/000000048169.png,experiment,p,p,1265.3649182000008
2,22,Female,Right,241,Block 2,1.4367079000003287,0.05,false,firehydrant,cat,occlusion,high,mask,partial viewing,few large,Stimulus\all_stim\occlusion\partialviewing\fewlarge\high\fewlarge_partialViewing_high_firehydrant1.png,mask_img/000000017944.png,experiment,o,r,1267.6854088000036
2,22,Female,Right,242,Block 2,1.179890700004762,0.05,true,bird,bird,occlusion,control,mask,partial viewing,many small,Stimulus\all_stim\occlusion\partialviewing\manysmall\control\manysmall_partialViewing_control_bird5.png,mask_img/000000034930.png,experiment,i,i,1269.6450034000009
2,22,Female,Right,243,Block 2,0.9347123999978066,0.025,true,person,person,occlusion,low,mask,partial viewing,many small,Stimulus\all_stim\occlusion\partialviewing\manysmall\low\manysmall_partialViewing_low_person4.png,mask_img/000000062131.png,experiment,q,q,1271.2608894000005
2,22,Female,Right,244,Block 2,2.7304484999986016,0.025,true,cat,cat,occlusion,high,mask,partial viewing,few large,Stimulus\all_stim\occlusion\partialviewing\fewlarge\high\fewlarge_partialViewing_high_cat4.png,mask_img/000000017364.png,experiment,o,o,1274.9890741999989
2,22,Female,Right,245,Block 2,4.26109240000369,0.05,false,cat,building,occlusion,high,mask,partial viewing,many small,Stimulus\all_stim\occlusion\partialviewing\manysmall\high\manysmall_partialViewing_high_cat6.png,mask_img/000000049562.png,experiment,w,o,1280.1650472000038
2,22,Female,Right,246,Block 2,0.9961269000050379,0.1,true,bus,bus,occlusion,low,mask,partial viewing,many small,Stimulus\all_stim\occlusion\partialviewing\manysmall\low\manysmall_partialViewing_low_bus5.png,mask_img/000000058801.png,experiment,p,p,1282.2209390999997
2,22,Female,Right,247,Block 2,1.3715107000025455,0.025,false,banana,bird,occlusion,control,mask,partial viewing,few large,Stimulus\all_stim\occlusion\partialviewing\fewlarge\control\fewlarge_partialViewing_control_banana10.png,mask_img/000000000109.png,experiment,i,u,1284.3409777999987
2,22,Female,Right,248,Block 2,4.535685999995621,0.025,false,bird,banana,occlusion,low,mask,partial viewing,many small,Stimulus\all_stim\occlusion\partialviewing\manysmall\low\manysmall_partialViewing_low_bird8.png,mask_img/000000056137.png,experiment,u,i,1289.524934000001
2,22,Female,Right,249,Block 2,1.384337499999674,0.1,true,person,person,occlusion,control,mask,partial viewing,many small,Stimulus\all_stim\occlusion\partialviewing\manysmall\control\manysmall_partialViewing_control_person10.png,mask_img/000000039778.png,experiment,q,q,1291.693895000004
2,22,Female,Right,250,Block 2,1.5723689000005834,0.1,true,tree,tree,occlusion,low,mask,partial viewing,many small,Stimulus\all_stim\occlusion\partialviewing\manysmall\low\manysmall_partialViewing_low_tree8.png,mask_img/000000063804.png,experiment,e,e,1294.2131141999998
2,22,Female,Right,251,Block 2,1.2511793000012403,0.05,false,banana,building,occlusion,high,mask,partial viewing,many small,Stimulus\all_stim\occlusion\partialviewing\manysmall\high\manysmall_partialViewing_high_banana9.png,mask_img/000000043579.png,experiment,w,u,1296.1733437000003
2,22,Female,Right,252,Block 2,1.5727983999968274,0.025,true,building,building,occlusion,low,mask,partial viewing,few large,Stimulus\all_stim\occlusion\partialviewing\fewlarge\low\fewlarge_partialViewing_low_building3.png,mask_img/000000024808.png,experiment,w,w,1298.4051731
2,22,Female,Right,253,Block 2,3.1843998999975156,0.1,true,bird,bird,occlusion,control,mask,partial viewing,few large,Stimulus\all_stim\occlusion\partialviewing\fewlarge\control\fewlarge_partialViewing_control_bird2.png,mask_img/000000001647.png,experiment,i,i,1302.5973070999971
2,22,Female,Right,254,Block 2,1.343990000001213,0.05,true,firehydrant,firehydrant,occlusion,control,mask,partial viewing,few large,Stimulus\all_stim\occlusion\partialviewing\fewlarge\control\fewlarge_partialViewing_control_firehydrant10.png,mask_img/000000007758.png,experiment,r,r,1304.7732115000035
2,22,Female,Right,255,Block 2,0.971311200002674,0.05,true,tree,tree,occlusion,low,mask,partial viewing,few large,Stimulus\all_stim\occlusion\partialviewing\fewlarge\low\fewlarge_partialViewing_low_tree4.png,mask_img/000000032364.png,experiment,e,e,1306.6690466
2,22,Female,Right,256,Block 2,0.8787797999975737,0.1,true,tree,tree,occlusion,control,mask,partial viewing,few large,Stimulus\all_stim\occlusion\partialviewing\fewlarge\control\fewlarge_partialViewing_control_tree4.png,mask_img/000000010969.png,experiment,e,e,1308.277507400002
2,22,Female,Right,257,Block 2,0.8898762000026181,0.05,true,person,person,occlusion,low,mask,partial viewing,few large,Stimulus\all_stim\occlusion\partialviewing\fewlarge\low\fewlarge_partialViewing_low_person7.png,mask_img/000000030526.png,experiment,q,q,1310.0291223000022
2,22,Female,Right,258,Block 2,1.545623700003489,0.05,true,bird,bird,occlusion,control,mask,partial viewing,few large,Stimulus\all_stim\occlusion\partialviewing\fewlarge\control\fewlarge_partialViewing_control_bird5.png,mask_img/000000002197.png,experiment,i,i,1312.3092758999992
2,22,Female,Right,259,Block 2,1.1110026000023936,0.05,true,tree,tree,occlusion,low,mask,partial viewing,few large,Stimulus\all_stim\occlusion\partialviewing\fewlarge\low\fewlarge_partialViewing_low_tree1.png,mask_img/000000031053.png,experiment,e,e,1314.4375830999998
2,22,Female,Right,260,Block 2,1.1846851000009337,0.1,true,firehydrant,firehydrant,occlusion,control,mask,partial viewing,many small,Stimulus\all_stim\occlusion\partialviewing\manysmall\control\manysmall_partialViewing_control_firehydrant8.png,mask_img/000000039553.png,experiment,r,r,1316.645425200004
2,22,Female,Right,261,Block 2,1.1994945000042208,0.05,true,banana,banana,occlusion,control,mask,partial viewing,few large,Stimulus\all_stim\occlusion\partialviewing\fewlarge\control\fewlarge_partialViewing_control_banana1.png,mask_img/000000000042.png,experiment,u,u,1318.8847733000002
2,22,Female,Right,262,Block 2,1.0654520000025514,0.05,true,firehydrant,firehydrant,occlusion,control,mask,partial viewing,many small,Stimulus\all_stim\occlusion\partialviewing\manysmall\control\manysmall_partialViewing_control_firehydrant3.png,mask_img/000000039113.png,experiment,r,r,1320.6059203999976
2,22,Female,Right,263,Block 2,1.179335800006811,0.025,true,bird,bird,occlusion,control,mask,partial viewing,many small,Stimulus\all_stim\occlusion\partialviewing\manysmall\control\manysmall_partialViewing_control_bird4.png,mask_img/000000034691.png,experiment,i,i,1322.909096700001
2,22,Female,Right,264,Block 2,1.2120321999973385,0.05,true,firehydrant,firehydrant,occlusion,control,mask,partial viewing,many small,Stimulus\all_stim\occlusion\partialviewing\manysmall\control\manysmall_partialViewing_control_firehydrant10.png,mask_img/000000039053.png,experiment,r,r,1324.9571340999973
2,22,Female,Right,265,Block 2,0.9185492999968119,0.025,true,person,person,occlusion,low,mask,partial viewing,many small,Stimulus\all_stim\occlusion\partialviewing\manysmall\low\manysmall_partialViewing_low_person10.png,mask_img/000000061838.png,experiment,q,q,1326.8052457000013
2,22,Female,Right,266,Block 2,3.055022499996994,0.1,true,building,building,occlusion,low,mask,partial viewing,many small,Stimulus\all_stim\occlusion\partialviewing\manysmall\low\manysmall_partialViewing_low_building9.png,mask_img/000000058102.png,experiment,w,w,1330.7013301999978
2,22,Female,Right,267,Block 2,1.5060422999958973,0.1,true,building,building,occlusion,control,mask,partial viewing,few large,Stimulus\all_stim\occlusion\partialviewing\fewlarge\control\fewlarge_partialViewing_control_building8.png,mask_img/000000005105.png,experiment,w,w,1333.1887876000037
2,22,Female,Right,268,Block 2,0.8756761999975424,0.1,true,building,building,occlusion,high,mask,partial viewing,few large,Stimulus\all_stim\occlusion\partialviewing\fewlarge\high\fewlarge_partialViewing_high_building1.png,mask_img/000000014335.png,experiment,w,w,1334.9487867999997
2,22,Female,Right,269,Block 2,1.3832502000004752,0.05,true,cat,cat,occlusion,control,mask,partial viewing,many small,Stimulus\all_stim\occlusion\partialviewing\manysmall\control\manysmall_partialViewing_control_cat10.png,mask_img/000000038178.png,experiment,o,o,1337.3491980000035
2,22,Female,Right,270,Block 2,1.2318439000009676,0.1,true,cat,cat,occlusion,low,mask,partial viewing,many small,Stimulus\all_stim\occlusion\partialviewing\manysmall\low\manysmall_partialViewing_low_cat1.png,mask_img/000000059036.png,experiment,o,o,1339.5493392999997
2,22,Female,Right,271,Block 2,1.2280295000018668,0.1,true,person,person,occlusion,low,mask,partial viewing,many small,Stimulus\all_stim\occlusion\partialviewing\manysmall\low\manysmall_partialViewing_low_person7.png,mask_img/000000062350.png,experiment,q,q,1341.781458700003
2,22,Female,Right,272,Block 2,1.2767748999976902,0.025,true,cat,cat,occlusion,low,mask,partial viewing,few large,Stimulus\all_stim\occlusion\partialviewing\fewlarge\low\fewlarge_partialViewing_low_cat3.png,mask_img/000000027556.png,experiment,o,o,1344.0449320000043
2,22,Female,Right,273,Block 2,3.3352018000005046,0.025,false,banana,tree,occlusion,high,mask,partial viewing,many small,Stimulus\all_stim\occlusion\partialviewing\manysmall\high\manysmall_partialViewing_high_banana4.png,mask_img/000000042499.png,experiment,e,u,1348.0695787000004
2,22,Female,Right,274,Block 2,1.0117514000012306,0.1,true,building,building,occlusion,high,mask,partial viewing,few large,Stimulus\all_stim\occlusion\partialviewing\fewlarge\high\fewlarge_partialViewing_high_building7.png,mask_img/000000015155.png,experiment,w,w,1350.0931672000006
2,22,Female,Right,275,Block 2,0.9450828999979421,0.05,true,bus,bus,occlusion,low,mask,partial viewing,many small,Stimulus\all_stim\occlusion\partialviewing\manysmall\low\manysmall_partialViewing_low_bus7.png,mask_img/000000058822.png,experiment,p,p,1351.9972259999995
2,22,Female,Right,276,Block 2,2.612032700002601,0.1,true,bird,bird,occlusion,low,mask,partial viewing,few large,Stimulus\all_stim\occlusion\partialviewing\fewlarge\low\fewlarge_partialViewing_low_bird5.png,mask_img/000000024239.png,experiment,i,i,1355.317281800002
