pt_num,Age,Gender,Handedness,trial_nbr,block_number,rt,soa,acc,category,choiced_category,manipulation,difficulty,mask,type_occl,size_occl,filename,mask_filename,task,pressed_key,correct_key,Experiment Duration
5,24,Female,Right,1,Training,9.702566299994942,0.05,false,cat,tree,occlusion,high,mask,partial viewing,many small,Training_Stimulus\manysmall_partialViewing_high_cat511.png,mask_img/000000005862.png,training,e,i,484.43520209999406
5,24,Female,Right,2,Training,1.896180399999139,0.025,true,bus,bus,occlusion,low,mask,partial viewing,few large,Training_Stimulus\fewlarge_partialViewing_low_bus630.png,mask_img/000000002892.png,training,o,o,487.6553739999945
5,24,Female,Right,3,Training,0.9058813000010559,0.1,true,banana,banana,occlusion,control,mask,partial viewing,few large,Training_Stimulus\fewlarge_partialViewing_control_banana589.png,mask_img/000000000042.png,training,p,p,489.70281909999903
5,24,Female,Right,4,Training,3.2851279999886174,0.05,false,firehydrant,building,occlusion,high,mask,partial viewing,many small,Training_Stimulus\manysmall_partialViewing_high_firehydrant90.png,mask_img/000000006146.png,training,r,q,494.2513856000005
5,24,Female,Right,5,Training,2.06414109999605,0.1,true,firehydrant,firehydrant,occlusion,high,mask,partial viewing,many small,Training_Stimulus\manysmall_partialViewing_high_firehydrant90.png,mask_img/000000006146.png,training,q,q,497.4077772000019
5,24,Female,Right,6,Training,1.6910902000090573,0.1,true,person,person,occlusion,low,mask,partial viewing,many small,Training_Stimulus\manysmall_partialViewing_low_person587.png,mask_img/000000007179.png,training,u,u,500.2248571999953
5,24,Female,Right,7,Training,1.0282778999971924,0.1,true,building,building,occlusion,control,mask,partial viewing,many small,Training_Stimulus\manysmall_partialViewing_control_building48.png,mask_img/000000004739.png,training,r,r,502.7881253999949
5,24,Female,Right,8,Training,0.9807652000017697,0.05,true,bus,bus,occlusion,control,mask,partial viewing,many small,Training_Stimulus\manysmall_partialViewing_control_bus630.png,mask_img/000000004936.png,training,o,o,504.83506019999913
5,24,Female,Right,9,Training,1.0202183999936096,0.1,false,tree,banana,occlusion,control,mask,partial viewing,many small,Training_Stimulus\manysmall_partialViewing_control_tree25.png,mask_img/000000005282.png,training,p,e,506.93218139999954
5,24,Female,Right,10,Training,1.7278751999983797,0.1,true,cat,cat,occlusion,low,mask,partial viewing,few large,Training_Stimulus\fewlarge_partialViewing_low_cat593.png,mask_img/000000003084.png,training,i,i,510.0560669999977
5,24,Female,Right,11,Training,0.9977072000037879,0.05,true,building,building,occlusion,low,mask,partial viewing,few large,Training_Stimulus\fewlarge_partialViewing_low_building71.png,mask_img/000000002822.png,training,r,r,512.5773899000051
5,24,Female,Right,12,Training,0.8185972000064794,0.1,false,cat,firehydrant,occlusion,high,mask,partial viewing,many small,Training_Stimulus\manysmall_partialViewing_high_cat511.png,mask_img/000000005862.png,training,q,i,514.7607209999987
5,24,Female,Right,13,Training,1.5753648999962024,0.1,true,tree,tree,occlusion,low,mask,partial viewing,few large,Training_Stimulus\fewlarge_partialViewing_low_tree17.png,mask_img/000000003694.png,training,e,e,517.5600625999941
5,24,Female,Right,14,Training,2.454620699994848,0.025,false,firehydrant,person,occlusion,high,mask,partial viewing,few large,Training_Stimulus\fewlarge_partialViewing_high_firehydrant90.png,mask_img/000000001810.png,training,u,q,521.2830091000069
5,24,Female,Right,15,Training,1.2181965000054333,0.025,true,bus,bus,occlusion,high,mask,partial viewing,few large,Training_Stimulus\fewlarge_partialViewing_high_bus929.png,mask_img/000000001053.png,training,o,o,523.9710506999982
5,24,Female,Right,16,Training,0.9011298999976134,0.1,true,firehydrant,firehydrant,occlusion,control,mask,partial viewing,many small,Training_Stimulus\manysmall_partialViewing_control_firehydrant154.png,mask_img/000000005131.png,training,q,q,526.0816508999997
5,24,Female,Right,17,Training,1.0639568000042345,0.1,true,cat,cat,occlusion,control,mask,partial viewing,few large,Training_Stimulus\fewlarge_partialViewing_control_cat511.png,mask_img/000000000438.png,training,i,i,528.5032766000077
5,24,Female,Right,18,Training,2.3421397999918554,0.05,false,firehydrant,bird,occlusion,high,mask,partial viewing,few large,Training_Stimulus\fewlarge_partialViewing_high_firehydrant90.png,mask_img/000000001810.png,training,w,q,532.2219881000055
5,24,Female,Right,19,Training,0.8809601999964798,0.1,true,firehydrant,firehydrant,occlusion,low,mask,partial viewing,many small,Training_Stimulus\manysmall_partialViewing_low_firehydrant205.png,mask_img/000000006870.png,training,q,q,534.3102014000033
5,24,Female,Right,20,Training,1.0346557000011671,0.05,true,person,person,occlusion,low,mask,partial viewing,many small,Training_Stimulus\manysmall_partialViewing_low_person587.png,mask_img/000000007179.png,training,u,u,536.4662553999951
5,24,Female,Right,21,Training,1.1962960999953793,0.025,false,building,tree,occlusion,high,mask,partial viewing,few large,Training_Stimulus\fewlarge_partialViewing_high_building71.png,mask_img/000000000873.png,training,e,r,539.0969951000006
5,24,Female,Right,22,Training,1.040962999992189,0.1,true,bus,bus,occlusion,low,mask,partial viewing,few large,Training_Stimulus\fewlarge_partialViewing_low_bus630.png,mask_img/000000002892.png,training,o,o,541.4410674999963
5,24,Female,Right,23,Training,1.2471632000087993,0.1,false,bird,person,occlusion,low,mask,partial viewing,many small,Training_Stimulus\manysmall_partialViewing_low_bird394.png,mask_img/000000006481.png,training,u,w,544.1294000000053
5,24,Female,Right,24,Training,0.8917056000063894,0.025,true,banana,banana,occlusion,low,mask,partial viewing,few large,Training_Stimulus\fewlarge_partialViewing_low_banana1022.png,mask_img/000000002337.png,training,p,p,546.3804075999942
5,24,Female,Right,25,Training,0.9648484000063036,0.1,true,building,building,occlusion,control,mask,partial viewing,few large,Training_Stimulus\fewlarge_partialViewing_control_building48.png,mask_img/000000000312.png,training,r,r,548.6938933000056
5,24,Female,Right,26,Training,1.2817300999886356,0.05,true,bird,bird,occlusion,control,mask,partial viewing,few large,Training_Stimulus\fewlarge_partialViewing_control_bird394.png,mask_img/000000000109.png,training,w,w,551.5100252999982
5,24,Female,Right,27,Training,3.3473601000005146,0.1,false,cat,banana,occlusion,high,mask,partial viewing,few large,Training_Stimulus\fewlarge_partialViewing_high_cat511.png,mask_img/000000001647.png,training,p,i,555.9288510000042
5,24,Female,Right,28,Training,1.3458482999994885,0.1,true,bird,bird,occlusion,control,mask,partial viewing,many small,Training_Stimulus\manysmall_partialViewing_control_bird394.png,mask_img/000000004642.png,training,w,w,558.3530792999954
5,24,Female,Right,29,Training,0.9851492000016151,0.025,false,bird,banana,occlusion,low,mask,partial viewing,many small,Training_Stimulus\manysmall_partialViewing_low_bird394.png,mask_img/000000006481.png,training,p,w,560.6375550000084
5,24,Female,Right,30,Training,2.634445000003325,0.025,false,tree,person,occlusion,high,mask,partial viewing,few large,Training_Stimulus\fewlarge_partialViewing_high_tree25.png,mask_img/000000002197.png,training,u,e,564.3548777999968
5,24,Female,Right,31,Training,0.8707064000045648,0.05,true,banana,banana,occlusion,low,mask,partial viewing,few large,Training_Stimulus\fewlarge_partialViewing_low_banana1022.png,mask_img/000000002337.png,training,p,p,566.3574610000069
5,24,Female,Right,32,Training,1.04747549998865,0.05,true,bus,bus,occlusion,high,mask,partial viewing,many small,Training_Stimulus\manysmall_partialViewing_high_bus630.png,mask_img/000000005615.png,training,o,o,568.7823557000083
5,24,Female,Right,33,Training,1.206484399997862,0.05,true,building,building,occlusion,high,mask,partial viewing,few large,Training_Stimulus\fewlarge_partialViewing_high_building71.png,mask_img/000000000873.png,training,r,r,571.3940838999988
5,24,Female,Right,34,Training,1.327260500009288,0.025,false,tree,banana,occlusion,high,mask,partial viewing,many small,Training_Stimulus\manysmall_partialViewing_high_tree25.png,mask_img/000000006263.png,training,p,e,574.2378597000061
5,24,Female,Right,35,Training,1.7461904999945546,0.1,true,firehydrant,firehydrant,occlusion,low,mask,partial viewing,few large,Training_Stimulus\fewlarge_partialViewing_low_firehydrant205.png,mask_img/000000003225.png,training,q,q,577.5054438000079
5,24,Female,Right,36,Training,1.0498918000084814,0.05,true,banana,banana,occlusion,high,mask,partial viewing,few large,Training_Stimulus\fewlarge_partialViewing_high_banana1022.png,mask_img/000000000690.png,training,p,p,579.8345170999964
5,24,Female,Right,37,Training,1.052400700005819,0.1,true,tree,tree,occlusion,control,mask,partial viewing,few large,Training_Stimulus\fewlarge_partialViewing_control_tree17.png,mask_img/000000000626.png,training,e,e,582.4295045000035
5,24,Female,Right,38,Training,0.9334073000063654,0.1,true,building,building,occlusion,high,mask,partial viewing,few large,Training_Stimulus\fewlarge_partialViewing_high_building71.png,mask_img/000000000873.png,training,r,r,584.8069644000061
5,24,Female,Right,39,Training,1.0048084000009112,0.1,true,bus,bus,occlusion,high,mask,partial viewing,few large,Training_Stimulus\fewlarge_partialViewing_high_bus929.png,mask_img/000000001053.png,training,o,o,587.2933243000007
5,24,Female,Right,40,Training,1.0420917000010377,0.025,true,person,person,occlusion,low,mask,partial viewing,many small,Training_Stimulus\manysmall_partialViewing_low_person587.png,mask_img/000000007179.png,training,u,u,589.4664860000048
5,24,Female,Right,41,Training,1.0107320000097388,0.1,true,cat,cat,occlusion,control,mask,partial viewing,many small,Training_Stimulus\manysmall_partialViewing_control_cat511.png,mask_img/000000005105.png,training,i,i,591.7178134999995
5,24,Female,Right,42,Training,0.9547176000050968,0.1,true,person,person,occlusion,low,mask,partial viewing,few large,Training_Stimulus\fewlarge_partialViewing_low_person587.png,mask_img/000000003483.png,training,u,u,593.7334848000028
5,24,Female,Right,1,Block 1,3.8383070999989286,0.1,false,banana,firehydrant,occlusion,high,mask,partial viewing,few large,Stimulus\all_stim\occlusion\partialviewing\fewlarge\high\fewlarge_partialViewing_high_banana4.png,mask_img/000000012377.png,experiment,q,p,649.2849242999946
5,24,Female,Right,2,Block 1,1.3714256999955978,0.1,true,person,person,occlusion,low,mask,partial viewing,many small,Stimulus\all_stim\occlusion\partialviewing\manysmall\low\manysmall_partialViewing_low_person1.png,mask_img/000000061780.png,experiment,u,u,651.500480200004
5,24,Female,Right,3,Block 1,0.9232100999943214,0.1,true,person,person,occlusion,low,mask,partial viewing,few large,Stimulus\all_stim\occlusion\partialviewing\fewlarge\low\fewlarge_partialViewing_low_person7.png,mask_img/000000030526.png,experiment,u,u,653.1647069000028
5,24,Female,Right,4,Block 1,0.8267121999961091,0.1,true,person,person,occlusion,control,mask,partial viewing,few large,Stimulus\all_stim\occlusion\partialviewing\fewlarge\control\fewlarge_partialViewing_control_person4.png,mask_img/000000009178.png,experiment,u,u,654.9403862000036
5,24,Female,Right,5,Block 1,0.7102580999926431,0.1,true,banana,banana,occlusion,low,mask,partial viewing,few large,Stimulus\all_stim\occlusion\partialviewing\fewlarge\low\fewlarge_partialViewing_low_banana7.png,mask_img/000000023511.png,experiment,p,p,656.3488827999972
5,24,Female,Right,6,Block 1,0.8811317999934545,0.025,true,bus,bus,occlusion,control,mask,partial viewing,few large,Stimulus\all_stim\occlusion\partialviewing\fewlarge\control\fewlarge_partialViewing_control_bus1.png,mask_img/000000005142.png,experiment,o,o,658.1721433000057
5,24,Female,Right,7,Block 1,1.2031631999998353,0.05,true,bird,bird,occlusion,control,mask,partial viewing,many small,Stimulus\all_stim\occlusion\partialviewing\manysmall\control\manysmall_partialViewing_control_bird7.png,mask_img/000000035132.png,experiment,w,w,660.1970287000004
5,24,Female,Right,8,Block 1,1.2174496999941766,0.05,true,person,person,occlusion,low,mask,partial viewing,many small,Stimulus\all_stim\occlusion\partialviewing\manysmall\low\manysmall_partialViewing_low_person5.png,mask_img/000000062193.png,experiment,u,u,662.2763673000009
5,24,Female,Right,9,Block 1,0.9150356000027386,0.05,true,banana,banana,occlusion,control,mask,partial viewing,few large,Stimulus\all_stim\occlusion\partialviewing\fewlarge\control\fewlarge_partialViewing_control_banana6.png,mask_img/000000000595.png,experiment,p,p,664.0845659000042
5,24,Female,Right,10,Block 1,1.0521188999991864,0.1,false,tree,firehydrant,occlusion,high,mask,partial viewing,many small,Stimulus\all_stim\occlusion\partialviewing\manysmall\high\manysmall_partialViewing_high_tree9.png,mask_img/000000054336.png,experiment,q,e,666.1724327999982
5,24,Female,Right,11,Block 1,1.044205599988345,0.025,false,person,banana,occlusion,high,mask,partial viewing,few large,Stimulus\all_stim\occlusion\partialviewing\fewlarge\high\fewlarge_partialViewing_high_person10.png,mask_img/000000019927.png,experiment,p,u,667.9161543000082
5,24,Female,Right,12,Block 1,0.8892678999982309,0.05,true,bus,bus,occlusion,low,mask,partial viewing,many small,Stimulus\all_stim\occlusion\partialviewing\manysmall\low\manysmall_partialViewing_low_bus2.png,mask_img/000000058627.png,experiment,o,o,669.7004045000067
5,24,Female,Right,13,Block 1,0.8287755999917863,0.05,true,bus,bus,occlusion,control,mask,partial viewing,few large,Stimulus\all_stim\occlusion\partialviewing\fewlarge\control\fewlarge_partialViewing_control_bus3.png,mask_img/000000005418.png,experiment,o,o,671.5001989000011
5,24,Female,Right,14,Block 1,0.9520503999956418,0.025,false,person,banana,occlusion,high,mask,partial viewing,few large,Stimulus\all_stim\occlusion\partialviewing\fewlarge\high\fewlarge_partialViewing_high_person3.png,mask_img/000000020147.png,experiment,p,u,673.156087299998
5,24,Female,Right,15,Block 1,0.9720461000106297,0.05,true,banana,banana,occlusion,control,mask,partial viewing,few large,Stimulus\all_stim\occlusion\partialviewing\fewlarge\control\fewlarge_partialViewing_control_banana7.png,mask_img/000000000626.png,experiment,p,p,674.9884677000082
5,24,Female,Right,16,Block 1,0.786550900011207,0.05,true,banana,banana,occlusion,high,mask,partial viewing,few large,Stimulus\all_stim\occlusion\partialviewing\fewlarge\high\fewlarge_partialViewing_high_banana7.png,mask_img/000000012567.png,experiment,p,p,676.7879023999994
5,24,Female,Right,17,Block 1,0.9065570999955526,0.025,true,bus,bus,occlusion,high,mask,partial viewing,many small,Stimulus\all_stim\occlusion\partialviewing\manysmall\high\manysmall_partialViewing_high_bus5.png,mask_img/000000047395.png,experiment,o,o,678.532300299994
5,24,Female,Right,18,Block 1,0.8211908000084804,0.05,true,bus,bus,occlusion,low,mask,partial viewing,few large,Stimulus\all_stim\occlusion\partialviewing\fewlarge\low\fewlarge_partialViewing_low_bus2.png,mask_img/000000025858.png,experiment,o,o,680.1643803000043
5,24,Female,Right,19,Block 1,0.752113399998052,0.05,true,bus,bus,occlusion,low,mask,partial viewing,many small,Stimulus\all_stim\occlusion\partialviewing\manysmall\low\manysmall_partialViewing_low_bus1.png,mask_img/000000058232.png,experiment,o,o,682.0040545000084
5,24,Female,Right,20,Block 1,0.9321117999934359,0.025,false,firehydrant,cat,occlusion,low,mask,partial viewing,many small,Stimulus\all_stim\occlusion\partialviewing\manysmall\low\manysmall_partialViewing_low_firehydrant7.png,mask_img/000000061084.png,experiment,i,q,683.6121228999982
5,24,Female,Right,21,Block 1,2.556438200001139,0.05,false,banana,person,occlusion,high,mask,partial viewing,many small,Stimulus\all_stim\occlusion\partialviewing\manysmall\high\manysmall_partialViewing_high_banana7.png,mask_img/000000043024.png,experiment,u,p,686.9884942000062
5,24,Female,Right,22,Block 1,0.8834077000065008,0.025,true,person,person,occlusion,high,mask,partial viewing,few large,Stimulus\all_stim\occlusion\partialviewing\fewlarge\high\fewlarge_partialViewing_high_person8.png,mask_img/000000020570.png,experiment,u,u,688.6042602999951
5,24,Female,Right,23,Block 1,1.3707615000021178,0.1,true,building,building,occlusion,high,mask,partial viewing,few large,Stimulus\all_stim\occlusion\partialviewing\fewlarge\high\fewlarge_partialViewing_high_building4.png,mask_img/000000014592.png,experiment,r,r,690.7084793999966
5,24,Female,Right,24,Block 1,0.9170680000097491,0.1,true,bus,bus,occlusion,control,mask,partial viewing,many small,Stimulus\all_stim\occlusion\partialviewing\manysmall\control\manysmall_partialViewing_control_bus6.png,mask_img/000000037174.png,experiment,o,o,692.3564008999965
5,24,Female,Right,25,Block 1,0.9142838999978267,0.1,true,building,building,occlusion,control,mask,partial viewing,many small,Stimulus\all_stim\occlusion\partialviewing\manysmall\control\manysmall_partialViewing_control_building8.png,mask_img/000000036091.png,experiment,r,r,694.1082281999988
5,24,Female,Right,26,Block 1,0.9123279999912484,0.1,true,building,building,occlusion,control,mask,partial viewing,many small,Stimulus\all_stim\occlusion\partialviewing\manysmall\control\manysmall_partialViewing_control_building2.png,mask_img/000000035864.png,experiment,r,r,696.028455599997
5,24,Female,Right,27,Block 1,0.7988140000088606,0.025,true,firehydrant,firehydrant,occlusion,high,mask,partial viewing,few large,Stimulus\all_stim\occlusion\partialviewing\fewlarge\high\fewlarge_partialViewing_high_firehydrant3.png,mask_img/000000018864.png,experiment,q,q,697.8040017000021
5,24,Female,Right,28,Block 1,0.7686313000012888,0.05,true,banana,banana,occlusion,control,mask,partial viewing,few large,Stimulus\all_stim\occlusion\partialviewing\fewlarge\control\fewlarge_partialViewing_control_banana4.png,mask_img/000000000438.png,experiment,p,p,699.5719869000022
5,24,Female,Right,29,Block 1,1.4258491999935359,0.025,true,tree,tree,occlusion,control,mask,partial viewing,many small,Stimulus\all_stim\occlusion\partialviewing\manysmall\control\manysmall_partialViewing_control_tree3.png,mask_img/000000041014.png,experiment,e,e,701.9801570999989
5,24,Female,Right,30,Block 1,0.7909367000102066,0.05,true,firehydrant,firehydrant,occlusion,low,mask,partial viewing,few large,Stimulus\all_stim\occlusion\partialviewing\fewlarge\low\fewlarge_partialViewing_low_firehydrant9.png,mask_img/000000029056.png,experiment,q,q,703.844029800006
5,24,Female,Right,31,Block 1,0.8547372999892104,0.025,true,banana,banana,occlusion,high,mask,partial viewing,few large,Stimulus\all_stim\occlusion\partialviewing\fewlarge\high\fewlarge_partialViewing_high_banana7.png,mask_img/000000012567.png,experiment,p,p,705.4042842000053
5,24,Female,Right,32,Block 1,1.645157199993264,0.1,false,bird,firehydrant,occlusion,high,mask,partial viewing,few large,Stimulus\all_stim\occlusion\partialviewing\fewlarge\high\fewlarge_partialViewing_high_bird9.png,mask_img/000000014175.png,experiment,q,w,707.7084880000039
5,24,Female,Right,33,Block 1,2.1007472000055714,0.025,false,bird,banana,occlusion,high,mask,partial viewing,few large,Stimulus\all_stim\occlusion\partialviewing\fewlarge\high\fewlarge_partialViewing_high_bird3.png,mask_img/000000013455.png,experiment,p,w,710.8925638000073
5,24,Female,Right,34,Block 1,1.3372609999933047,0.1,true,building,building,occlusion,low,mask,partial viewing,few large,Stimulus\all_stim\occlusion\partialviewing\fewlarge\low\fewlarge_partialViewing_low_building7.png,mask_img/000000025192.png,experiment,r,r,713.0843254000065
5,24,Female,Right,35,Block 1,0.888442399998894,0.025,true,bus,bus,occlusion,control,mask,partial viewing,few large,Stimulus\all_stim\occlusion\partialviewing\fewlarge\control\fewlarge_partialViewing_control_bus10.png,mask_img/000000005282.png,experiment,o,o,714.9323537000018
5,24,Female,Right,36,Block 1,0.916093699997873,0.05,true,person,person,occlusion,control,mask,partial viewing,few large,Stimulus\all_stim\occlusion\partialviewing\fewlarge\control\fewlarge_partialViewing_control_person7.png,mask_img/000000009648.png,experiment,u,u,716.5971702999959
5,24,Female,Right,37,Block 1,1.051320400001714,0.025,true,building,building,occlusion,control,mask,partial viewing,many small,Stimulus\all_stim\occlusion\partialviewing\manysmall\control\manysmall_partialViewing_control_building9.png,mask_img/000000036226.png,experiment,r,r,718.7720642000058
5,24,Female,Right,38,Block 1,0.7628274000016972,0.1,true,tree,tree,occlusion,low,mask,partial viewing,many small,Stimulus\all_stim\occlusion\partialviewing\manysmall\low\manysmall_partialViewing_low_tree6.png,mask_img/000000063715.png,experiment,e,e,720.4761032999959
5,24,Female,Right,39,Block 1,0.9555002000124659,0.1,true,bird,bird,occlusion,control,mask,partial viewing,few large,Stimulus\all_stim\occlusion\partialviewing\fewlarge\control\fewlarge_partialViewing_control_bird10.png,mask_img/000000001053.png,experiment,w,w,722.4120141000021
5,24,Female,Right,40,Block 1,0.9953239000024041,0.1,true,bus,bus,occlusion,control,mask,partial viewing,few large,Stimulus\all_stim\occlusion\partialviewing\fewlarge\control\fewlarge_partialViewing_control_bus4.png,mask_img/000000005574.png,experiment,o,o,724.0923144999979
5,24,Female,Right,41,Block 1,0.9297757000022102,0.05,false,tree,person,occlusion,high,mask,partial viewing,many small,Stimulus\all_stim\occlusion\partialviewing\manysmall\high\manysmall_partialViewing_high_tree10.png,mask_img/000000052818.png,experiment,u,e,725.7882007000007
5,24,Female,Right,42,Block 1,1.5270694000064395,0.025,true,tree,tree,occlusion,high,mask,partial viewing,few large,Stimulus\all_stim\occlusion\partialviewing\fewlarge\high\fewlarge_partialViewing_high_tree3.png,mask_img/000000021942.png,experiment,e,e,728.0605720000021
5,24,Female,Right,43,Block 1,0.8831994999927701,0.05,true,bird,bird,occlusion,low,mask,partial viewing,few large,Stimulus\all_stim\occlusion\partialviewing\fewlarge\low\fewlarge_partialViewing_low_bird2.png,mask_img/000000024125.png,experiment,w,w,730.0441755000065
5,24,Female,Right,44,Block 1,0.9036395000002813,0.1,true,firehydrant,firehydrant,occlusion,low,mask,partial viewing,many small,Stimulus\all_stim\occlusion\partialviewing\manysmall\low\manysmall_partialViewing_low_firehydrant2.png,mask_img/000000060548.png,experiment,q,q,731.5886317999975
5,24,Female,Right,45,Block 1,1.0046811000065645,0.025,true,tree,tree,occlusion,high,mask,partial viewing,few large,Stimulus\all_stim\occlusion\partialviewing\fewlarge\high\fewlarge_partialViewing_high_tree8.png,mask_img/000000022355.png,experiment,e,e,733.3243849999999
5,24,Female,Right,46,Block 1,1.0120410000090487,0.05,false,cat,bus,occlusion,low,mask,partial viewing,many small,Stimulus\all_stim\occlusion\partialviewing\manysmall\low\manysmall_partialViewing_low_cat7.png,mask_img/000000060158.png,experiment,o,i,735.0461571000051
5,24,Female,Right,47,Block 1,0.9461123999935808,0.05,true,bus,bus,occlusion,low,mask,partial viewing,many small,Stimulus\all_stim\occlusion\partialviewing\manysmall\low\manysmall_partialViewing_low_bus4.png,mask_img/000000058701.png,experiment,o,o,736.8607489999995
5,24,Female,Right,48,Block 1,0.8836483000050066,0.025,true,bus,bus,occlusion,low,mask,partial viewing,many small,Stimulus\all_stim\occlusion\partialviewing\manysmall\low\manysmall_partialViewing_low_bus3.png,mask_img/000000058647.png,experiment,o,o,738.452183100002
5,24,Female,Right,49,Block 1,3.338571200001752,0.1,false,tree,bird,occlusion,low,mask,partial viewing,many small,Stimulus\all_stim\occlusion\partialviewing\manysmall\low\manysmall_partialViewing_low_tree2.png,mask_img/000000062875.png,experiment,w,e,742.8200844999956
5,24,Female,Right,50,Block 1,0.8647151000041049,0.05,true,bird,bird,occlusion,low,mask,partial viewing,few large,Stimulus\all_stim\occlusion\partialviewing\fewlarge\low\fewlarge_partialViewing_low_bird4.png,mask_img/000000024193.png,experiment,w,w,744.5801520999958
5,24,Female,Right,51,Block 1,0.8198784999985946,0.025,true,firehydrant,firehydrant,occlusion,high,mask,partial viewing,few large,Stimulus\all_stim\occlusion\partialviewing\fewlarge\high\fewlarge_partialViewing_high_firehydrant6.png,mask_img/000000019134.png,experiment,q,q,746.1723663000012
5,24,Female,Right,52,Block 1,1.2156568000063999,0.05,true,bus,bus,occlusion,high,mask,partial viewing,few large,Stimulus\all_stim\occlusion\partialviewing\fewlarge\high\fewlarge_partialViewing_high_bus5.png,mask_img/000000015986.png,experiment,o,o,748.3083309000067
5,24,Female,Right,53,Block 1,1.0579900999873644,0.05,true,tree,tree,occlusion,high,mask,partial viewing,many small,Stimulus\all_stim\occlusion\partialviewing\manysmall\high\manysmall_partialViewing_high_tree2.png,mask_img/000000052901.png,experiment,e,e,750.2763023000007
5,24,Female,Right,54,Block 1,0.9090324999997392,0.05,true,bus,bus,occlusion,low,mask,partial viewing,few large,Stimulus\all_stim\occlusion\partialviewing\fewlarge\low\fewlarge_partialViewing_low_bus1.png,mask_img/000000025820.png,experiment,o,o,751.9800350000005
5,24,Female,Right,55,Block 1,1.9414583000034327,0.1,false,building,tree,occlusion,high,mask,partial viewing,few large,Stimulus\all_stim\occlusion\partialviewing\fewlarge\high\fewlarge_partialViewing_high_building9.png,mask_img/000000015619.png,experiment,e,r,754.9403440000024
5,24,Female,Right,56,Block 1,0.9041310000029625,0.1,false,building,tree,occlusion,control,mask,partial viewing,many small,Stimulus\all_stim\occlusion\partialviewing\manysmall\control\manysmall_partialViewing_control_building10.png,mask_img/000000035857.png,experiment,e,r,756.5078982999985
5,24,Female,Right,57,Block 1,0.8420853999996325,0.025,false,building,tree,occlusion,control,mask,partial viewing,few large,Stimulus\all_stim\occlusion\partialviewing\fewlarge\control\fewlarge_partialViewing_control_building9.png,mask_img/000000005131.png,experiment,e,r,758.1877890000032
5,24,Female,Right,58,Block 1,2.8535020999988774,0.1,false,banana,firehydrant,occlusion,high,mask,partial viewing,many small,Stimulus\all_stim\occlusion\partialviewing\manysmall\high\manysmall_partialViewing_high_banana4.png,mask_img/000000042499.png,experiment,q,p,762.0762347999989
5,24,Female,Right,59,Block 1,1.8352228000003379,0.1,true,person,person,occlusion,high,mask,partial viewing,many small,Stimulus\all_stim\occlusion\partialviewing\manysmall\high\manysmall_partialViewing_high_person7.png,mask_img/000000052562.png,experiment,u,u,764.732201699997
5,24,Female,Right,60,Block 1,1.077682499992079,0.025,true,cat,cat,occlusion,low,mask,partial viewing,many small,Stimulus\all_stim\occlusion\partialviewing\manysmall\low\manysmall_partialViewing_low_cat7.png,mask_img/000000060158.png,experiment,i,i,766.8207161000028
5,24,Female,Right,61,Block 1,0.9116534999920987,0.1,true,person,person,occlusion,control,mask,partial viewing,few large,Stimulus\all_stim\occlusion\partialviewing\fewlarge\control\fewlarge_partialViewing_control_person2.png,mask_img/000000008787.png,experiment,u,u,768.412541800004
5,24,Female,Right,62,Block 1,0.9349415000033332,0.05,false,cat,bird,occlusion,high,mask,partial viewing,many small,Stimulus\all_stim\occlusion\partialviewing\manysmall\high\manysmall_partialViewing_high_cat4.png,mask_img/000000049331.png,experiment,w,i,770.1165196000075
5,24,Female,Right,63,Block 1,0.7992606000043452,0.1,true,building,building,occlusion,control,mask,partial viewing,many small,Stimulus\all_stim\occlusion\partialviewing\manysmall\control\manysmall_partialViewing_control_building6.png,mask_img/000000036006.png,experiment,r,r,771.7641143000073
5,24,Female,Right,64,Block 1,0.7434731999965152,0.05,true,banana,banana,occlusion,low,mask,partial viewing,many small,Stimulus\all_stim\occlusion\partialviewing\manysmall\low\manysmall_partialViewing_low_banana2.png,mask_img/000000054759.png,experiment,p,p,773.2600851000025
5,24,Female,Right,65,Block 1,0.8031264000019291,0.1,true,person,person,occlusion,high,mask,partial viewing,few large,Stimulus\all_stim\occlusion\partialviewing\fewlarge\high\fewlarge_partialViewing_high_person8.png,mask_img/000000020570.png,experiment,u,u,775.1733734000009
5,24,Female,Right,66,Block 1,0.7785943999915617,0.025,true,building,building,occlusion,control,mask,partial viewing,few large,Stimulus\all_stim\occlusion\partialviewing\fewlarge\control\fewlarge_partialViewing_control_building3.png,mask_img/000000003694.png,experiment,r,r,776.9638132999971
5,24,Female,Right,67,Block 1,0.7958400000061374,0.025,true,building,building,occlusion,high,mask,partial viewing,many small,Stimulus\all_stim\occlusion\partialviewing\manysmall\high\manysmall_partialViewing_high_building1.png,mask_img/000000044950.png,experiment,r,r,778.6200622000033
5,24,Female,Right,68,Block 1,0.696941300004255,0.05,true,banana,banana,occlusion,low,mask,partial viewing,few large,Stimulus\all_stim\occlusion\partialviewing\fewlarge\low\fewlarge_partialViewing_low_banana3.png,mask_img/000000023004.png,experiment,p,p,780.3879363000015
5,24,Female,Right,69,Block 1,1.5442666000017198,0.05,false,building,bus,occlusion,low,mask,partial viewing,many small,Stimulus\all_stim\occlusion\partialviewing\manysmall\low\manysmall_partialViewing_low_building4.png,mask_img/000000057782.png,experiment,o,r,782.6930046000052
5,24,Female,Right,70,Block 1,0.8519877999933669,0.05,false,firehydrant,person,occlusion,high,mask,partial viewing,many small,Stimulus\all_stim\occlusion\partialviewing\manysmall\high\manysmall_partialViewing_high_firehydrant6.png,mask_img/000000050782.png,experiment,u,q,784.5401981000032
5,24,Female,Right,71,Block 1,2.428158100010478,0.05,false,firehydrant,building,occlusion,high,mask,partial viewing,few large,Stimulus\all_stim\occlusion\partialviewing\fewlarge\high\fewlarge_partialViewing_high_firehydrant4.png,mask_img/000000018882.png,experiment,r,q,787.6202640999982
5,24,Female,Right,72,Block 1,1.2339861000073142,0.1,false,cat,banana,occlusion,high,mask,partial viewing,few large,Stimulus\all_stim\occlusion\partialviewing\fewlarge\high\fewlarge_partialViewing_high_cat7.png,mask_img/000000017580.png,experiment,p,i,789.7563137999969
5,24,Female,Right,73,Block 1,0.819890899991151,0.05,true,person,person,occlusion,low,mask,partial viewing,few large,Stimulus\all_stim\occlusion\partialviewing\fewlarge\low\fewlarge_partialViewing_low_person4.png,mask_img/000000029730.png,experiment,u,u,791.6359977999964
5,24,Female,Right,74,Block 1,0.6979610999987926,0.05,true,banana,banana,occlusion,low,mask,partial viewing,few large,Stimulus\all_stim\occlusion\partialviewing\fewlarge\low\fewlarge_partialViewing_low_banana5.png,mask_img/000000023100.png,experiment,p,p,793.0201024999988
5,24,Female,Right,75,Block 1,0.9016832000052091,0.05,true,bird,bird,occlusion,low,mask,partial viewing,many small,Stimulus\all_stim\occlusion\partialviewing\manysmall\low\manysmall_partialViewing_low_bird4.png,mask_img/000000055859.png,experiment,w,w,794.6602943000034
5,24,Female,Right,76,Block 1,0.6852327999949921,0.025,true,tree,tree,occlusion,low,mask,partial viewing,few large,Stimulus\all_stim\occlusion\partialviewing\fewlarge\low\fewlarge_partialViewing_low_tree2.png,mask_img/000000031601.png,experiment,e,e,796.1719339999981
5,24,Female,Right,77,Block 1,0.6948771000024863,0.1,true,bus,bus,occlusion,low,mask,partial viewing,many small,Stimulus\all_stim\occlusion\partialviewing\manysmall\low\manysmall_partialViewing_low_bus3.png,mask_img/000000058647.png,experiment,o,o,797.6605103000038
5,24,Female,Right,78,Block 1,2.0877997999923537,0.05,true,bus,bus,occlusion,control,mask,partial viewing,many small,Stimulus\all_stim\occlusion\partialviewing\manysmall\control\manysmall_partialViewing_control_bus10.png,mask_img/000000036482.png,experiment,o,o,800.8040713999944
5,24,Female,Right,79,Block 1,1.4824550000048475,0.05,true,bus,bus,occlusion,control,mask,partial viewing,few large,Stimulus\all_stim\occlusion\partialviewing\fewlarge\control\fewlarge_partialViewing_control_bus9.png,mask_img/000000006263.png,experiment,o,o,803.3081409000006
5,24,Female,Right,80,Block 1,1.1159778000001097,0.05,true,bus,bus,occlusion,low,mask,partial viewing,few large,Stimulus\all_stim\occlusion\partialviewing\fewlarge\low\fewlarge_partialViewing_low_bus6.png,mask_img/000000026503.png,experiment,o,o,805.3087005999987
5,24,Female,Right,81,Block 1,0.7677378999942448,0.05,false,tree,bird,occlusion,high,mask,partial viewing,few large,Stimulus\all_stim\occlusion\partialviewing\fewlarge\high\fewlarge_partialViewing_high_tree6.png,mask_img/000000022142.png,experiment,w,e,807.0039228999958
5,24,Female,Right,82,Block 1,1.7210957999923266,0.05,false,firehydrant,building,occlusion,high,mask,partial viewing,many small,Stimulus\all_stim\occlusion\partialviewing\manysmall\high\manysmall_partialViewing_high_firehydrant2.png,mask_img/000000050239.png,experiment,r,q,809.4922548000031
5,24,Female,Right,83,Block 1,0.7267745999997715,0.025,true,bus,bus,occlusion,low,mask,partial viewing,few large,Stimulus\all_stim\occlusion\partialviewing\fewlarge\low\fewlarge_partialViewing_low_bus8.png,mask_img/000000026782.png,experiment,o,o,811.2119634999981
5,24,Female,Right,84,Block 1,0.8659578000078909,0.1,true,tree,tree,occlusion,low,mask,partial viewing,many small,Stimulus\all_stim\occlusion\partialviewing\manysmall\low\manysmall_partialViewing_low_tree5.png,mask_img/000000063482.png,experiment,e,e,812.980263400008
5,24,Female,Right,85,Block 1,0.76413880000473,0.05,true,person,person,occlusion,low,mask,partial viewing,few large,Stimulus\all_stim\occlusion\partialviewing\fewlarge\low\fewlarge_partialViewing_low_person2.png,mask_img/000000029274.png,experiment,u,u,814.5801510000019
5,24,Female,Right,86,Block 1,0.936297199994442,0.025,true,person,person,occlusion,high,mask,partial viewing,few large,Stimulus\all_stim\occlusion\partialviewing\fewlarge\high\fewlarge_partialViewing_high_person2.png,mask_img/000000019932.png,experiment,u,u,816.2604527000076
5,24,Female,Right,87,Block 1,0.7430418000003556,0.05,true,tree,tree,occlusion,control,mask,partial viewing,few large,Stimulus\all_stim\occlusion\partialviewing\fewlarge\control\fewlarge_partialViewing_control_tree9.png,mask_img/000000011701.png,experiment,e,e,818.1240270999988
5,24,Female,Right,88,Block 1,1.1367395999986911,0.05,true,person,person,occlusion,control,mask,partial viewing,few large,Stimulus\all_stim\occlusion\partialviewing\fewlarge\control\fewlarge_partialViewing_control_person8.png,mask_img/000000009729.png,experiment,u,u,820.3963423999958
5,24,Female,Right,89,Block 1,0.9505419000051916,0.05,true,bird,bird,occlusion,high,mask,partial viewing,few large,Stimulus\all_stim\occlusion\partialviewing\fewlarge\high\fewlarge_partialViewing_high_bird2.png,mask_img/000000013169.png,experiment,w,w,822.2367109000043
5,24,Female,Right,90,Block 1,0.8305483000003733,0.025,true,bus,bus,occlusion,control,mask,partial viewing,few large,Stimulus\all_stim\occlusion\partialviewing\fewlarge\control\fewlarge_partialViewing_control_bus7.png,mask_img/000000006146.png,experiment,o,o,823.9165975000069
5,24,Female,Right,91,Block 1,0.9136653999885311,0.025,true,cat,cat,occlusion,low,mask,partial viewing,few large,Stimulus\all_stim\occlusion\partialviewing\fewlarge\low\fewlarge_partialViewing_low_cat4.png,mask_img/000000027675.png,experiment,i,i,825.5403881999955
5,24,Female,Right,92,Block 1,1.0083796999970218,0.025,false,tree,bird,occlusion,control,mask,partial viewing,few large,Stimulus\all_stim\occlusion\partialviewing\fewlarge\control\fewlarge_partialViewing_control_tree8.png,mask_img/000000011544.png,experiment,w,e,827.3960988000035
5,24,Female,Right,93,Block 1,2.1271035999961896,0.025,false,bird,firehydrant,occlusion,high,mask,partial viewing,few large,Stimulus\all_stim\occlusion\partialviewing\fewlarge\high\fewlarge_partialViewing_high_bird9.png,mask_img/000000014175.png,experiment,q,w,830.4845587000018
5,24,Female,Right,94,Block 1,0.9676695000089239,0.1,false,bird,person,occlusion,high,mask,partial viewing,few large,Stimulus\all_stim\occlusion\partialviewing\fewlarge\high\fewlarge_partialViewing_high_bird7.png,mask_img/000000013949.png,experiment,u,w,832.3243854000029
5,24,Female,Right,95,Block 1,2.318703099997947,0.1,false,cat,bird,occlusion,high,mask,partial viewing,few large,Stimulus\all_stim\occlusion\partialviewing\fewlarge\high\fewlarge_partialViewing_high_cat9.png,mask_img/000000017858.png,experiment,w,i,835.3564743000024
5,24,Female,Right,96,Block 1,0.8336190999980317,0.025,true,bus,bus,occlusion,control,mask,partial viewing,few large,Stimulus\all_stim\occlusion\partialviewing\fewlarge\control\fewlarge_partialViewing_control_bus6.png,mask_img/000000005862.png,experiment,o,o,837.0684965999972
5,24,Female,Right,97,Block 1,0.8073764000000665,0.025,true,firehydrant,firehydrant,occlusion,high,mask,partial viewing,few large,Stimulus\all_stim\occlusion\partialviewing\fewlarge\high\fewlarge_partialViewing_high_firehydrant5.png,mask_img/000000018982.png,experiment,q,q,838.9645926999947
5,24,Female,Right,98,Block 1,1.2187885000021197,0.1,true,tree,tree,occlusion,high,mask,partial viewing,few large,Stimulus\all_stim\occlusion\partialviewing\fewlarge\high\fewlarge_partialViewing_high_tree10.png,mask_img/000000021419.png,experiment,e,e,841.0838951000042
5,24,Female,Right,99,Block 1,0.8793944999924861,0.05,false,cat,bird,occlusion,high,mask,partial viewing,many small,Stimulus\all_stim\occlusion\partialviewing\manysmall\high\manysmall_partialViewing_high_cat2.png,mask_img/000000049092.png,experiment,w,i,842.8518704000016
5,24,Female,Right,100,Block 1,1.5090474000026006,0.1,true,cat,cat,occlusion,control,mask,partial viewing,few large,Stimulus\all_stim\occlusion\partialviewing\fewlarge\control\fewlarge_partialViewing_control_cat9.png,mask_img/000000007558.png,experiment,i,i,845.4683954000066
5,24,Female,Right,101,Block 1,0.9752775999950245,0.05,true,banana,banana,occlusion,control,mask,partial viewing,many small,Stimulus\all_stim\occlusion\partialviewing\manysmall\control\manysmall_partialViewing_control_banana8.png,mask_img/000000033904.png,experiment,p,p,847.1158914999978
5,24,Female,Right,102,Block 1,0.8398275999934413,0.025,true,cat,cat,occlusion,low,mask,partial viewing,few large,Stimulus\all_stim\occlusion\partialviewing\fewlarge\low\fewlarge_partialViewing_low_cat5.png,mask_img/000000027704.png,experiment,i,i,849.0362402000028
5,24,Female,Right,103,Block 1,1.025924200002919,0.05,true,building,building,occlusion,control,mask,partial viewing,few large,Stimulus\all_stim\occlusion\partialviewing\fewlarge\control\fewlarge_partialViewing_control_building3.png,mask_img/000000003694.png,experiment,r,r,851.1481327000074
5,24,Female,Right,104,Block 1,1.749553299989202,0.025,false,cat,bird,occlusion,high,mask,partial viewing,few large,Stimulus\all_stim\occlusion\partialviewing\fewlarge\high\fewlarge_partialViewing_high_cat7.png,mask_img/000000017580.png,experiment,w,i,853.7400202999997
5,24,Female,Right,105,Block 1,0.8562248000089312,0.025,true,banana,banana,occlusion,low,mask,partial viewing,few large,Stimulus\all_stim\occlusion\partialviewing\fewlarge\low\fewlarge_partialViewing_low_banana4.png,mask_img/000000023015.png,experiment,p,p,855.3801815000043
5,24,Female,Right,106,Block 1,0.8410556000017095,0.025,true,bird,bird,occlusion,low,mask,partial viewing,many small,Stimulus\all_stim\occlusion\partialviewing\manysmall\low\manysmall_partialViewing_low_bird7.png,mask_img/000000056036.png,experiment,w,w,857.0763205999974
5,24,Female,Right,107,Block 1,0.9391337999986717,0.05,false,bus,building,occlusion,high,mask,partial viewing,many small,Stimulus\all_stim\occlusion\partialviewing\manysmall\high\manysmall_partialViewing_high_bus4.png,mask_img/000000047316.png,experiment,r,o,859.0369031000009
5,24,Female,Right,108,Block 1,0.8597883000038564,0.1,true,person,person,occlusion,low,mask,partial viewing,many small,Stimulus\all_stim\occlusion\partialviewing\manysmall\low\manysmall_partialViewing_low_person3.png,mask_img/000000062128.png,experiment,u,u,860.5887842000084
5,24,Female,Right,109,Block 1,0.7810245000000577,0.1,true,person,person,occlusion,low,mask,partial viewing,many small,Stimulus\all_stim\occlusion\partialviewing\manysmall\low\manysmall_partialViewing_low_person9.png,mask_img/000000062427.png,experiment,u,u,862.148583000002
5,24,Female,Right,110,Block 1,0.755325999998604,0.025,true,bus,bus,occlusion,low,mask,partial viewing,many small,Stimulus\all_stim\occlusion\partialviewing\manysmall\low\manysmall_partialViewing_low_bus2.png,mask_img/000000058627.png,experiment,o,o,863.9478128000046
5,24,Female,Right,111,Block 1,0.866553699990618,0.05,true,bus,bus,occlusion,high,mask,partial viewing,many small,Stimulus\all_stim\occlusion\partialviewing\manysmall\high\manysmall_partialViewing_high_bus8.png,mask_img/000000048169.png,experiment,o,o,865.7160616000037
5,24,Female,Right,112,Block 1,0.7100520999956643,0.025,true,banana,banana,occlusion,low,mask,partial viewing,few large,Stimulus\all_stim\occlusion\partialviewing\fewlarge\low\fewlarge_partialViewing_low_banana6.png,mask_img/000000023137.png,experiment,p,p,867.172278500002
5,24,Female,Right,113,Block 1,0.7694500999932643,0.05,true,cat,cat,occlusion,control,mask,partial viewing,many small,Stimulus\all_stim\occlusion\partialviewing\manysmall\control\manysmall_partialViewing_control_cat6.png,mask_img/000000038753.png,experiment,i,i,868.861988100005
5,24,Female,Right,114,Block 1,0.8228038999950513,0.025,true,bus,bus,occlusion,control,mask,partial viewing,few large,Stimulus\all_stim\occlusion\partialviewing\fewlarge\control\fewlarge_partialViewing_control_bus2.png,mask_img/000000005359.png,experiment,o,o,870.5242307000008
5,24,Female,Right,115,Block 1,0.945697699993616,0.05,true,tree,tree,occlusion,low,mask,partial viewing,few large,Stimulus\all_stim\occlusion\partialviewing\fewlarge\low\fewlarge_partialViewing_low_tree6.png,mask_img/000000032720.png,experiment,e,e,872.1165885000082
5,24,Female,Right,116,Block 1,0.7980552999943029,0.05,true,tree,tree,occlusion,low,mask,partial viewing,few large,Stimulus\all_stim\occlusion\partialviewing\fewlarge\low\fewlarge_partialViewing_low_tree10.png,mask_img/000000031454.png,experiment,e,e,873.8124007000006
5,24,Female,Right,117,Block 1,0.8862009000004036,0.025,true,banana,banana,occlusion,low,mask,partial viewing,many small,Stimulus\all_stim\occlusion\partialviewing\manysmall\low\manysmall_partialViewing_low_banana10.png,mask_img/000000054723.png,experiment,p,p,875.6681725999952
5,24,Female,Right,118,Block 1,0.7906984000001103,0.025,true,bus,bus,occlusion,low,mask,partial viewing,few large,Stimulus\all_stim\occlusion\partialviewing\fewlarge\low\fewlarge_partialViewing_low_bus4.png,mask_img/000000026053.png,experiment,o,o,877.5083176000044
5,24,Female,Right,119,Block 1,1.4943113000044832,0.025,false,bird,firehydrant,occlusion,high,mask,partial viewing,many small,Stimulus\all_stim\occlusion\partialviewing\manysmall\high\manysmall_partialViewing_high_bird6.png,mask_img/000000044523.png,experiment,q,w,879.980468099995
5,24,Female,Right,120,Block 1,0.8396790999977384,0.025,true,firehydrant,firehydrant,occlusion,low,mask,partial viewing,few large,Stimulus\all_stim\occlusion\partialviewing\fewlarge\low\fewlarge_partialViewing_low_firehydrant10.png,mask_img/000000028367.png,experiment,q,q,881.6840177999984
5,24,Female,Right,121,Block 1,0.8960593000083463,0.1,true,building,building,occlusion,high,mask,partial viewing,few large,Stimulus\all_stim\occlusion\partialviewing\fewlarge\high\fewlarge_partialViewing_high_building7.png,mask_img/000000015155.png,experiment,r,r,883.5080060000037
5,24,Female,Right,122,Block 1,0.8500682000012603,0.05,true,banana,banana,occlusion,high,mask,partial viewing,many small,Stimulus\all_stim\occlusion\partialviewing\manysmall\high\manysmall_partialViewing_high_banana4.png,mask_img/000000042499.png,experiment,p,p,885.4762641999987
5,24,Female,Right,123,Block 1,0.8031067000119947,0.025,true,bird,bird,occlusion,control,mask,partial viewing,few large,Stimulus\all_stim\occlusion\partialviewing\fewlarge\control\fewlarge_partialViewing_control_bird8.png,mask_img/000000002822.png,experiment,w,w,887.2762255999987
5,24,Female,Right,124,Block 1,0.7703792999964207,0.025,true,banana,banana,occlusion,high,mask,partial viewing,few large,Stimulus\all_stim\occlusion\partialviewing\fewlarge\high\fewlarge_partialViewing_high_banana5.png,mask_img/000000012543.png,experiment,p,p,889.1162435000006
5,24,Female,Right,125,Block 1,1.086584299991955,0.025,true,banana,banana,occlusion,high,mask,partial viewing,many small,Stimulus\all_stim\occlusion\partialviewing\manysmall\high\manysmall_partialViewing_high_banana8.png,mask_img/000000043291.png,experiment,p,p,891.1244126999954
5,24,Female,Right,126,Block 1,0.9261474000086309,0.05,true,banana,banana,occlusion,high,mask,partial viewing,few large,Stimulus\all_stim\occlusion\partialviewing\fewlarge\high\fewlarge_partialViewing_high_banana10.png,mask_img/000000012178.png,experiment,p,p,892.9161052999989
5,24,Female,Right,127,Block 1,0.6972068000031868,0.1,true,bus,bus,occlusion,control,mask,partial viewing,many small,Stimulus\all_stim\occlusion\partialviewing\manysmall\control\manysmall_partialViewing_control_bus10.png,mask_img/000000036482.png,experiment,o,o,894.5329717999994
5,24,Female,Right,128,Block 1,0.7650109999958659,0.025,true,cat,cat,occlusion,control,mask,partial viewing,many small,Stimulus\all_stim\occlusion\partialviewing\manysmall\control\manysmall_partialViewing_control_cat5.png,mask_img/000000038601.png,experiment,i,i,896.092009400003
5,24,Female,Right,129,Block 1,0.7979828999959864,0.05,true,bird,bird,occlusion,high,mask,partial viewing,few large,Stimulus\all_stim\occlusion\partialviewing\fewlarge\high\fewlarge_partialViewing_high_bird5.png,mask_img/000000013914.png,experiment,w,w,897.9801738999959
5,24,Female,Right,130,Block 1,0.835392499997397,0.05,false,building,tree,occlusion,control,mask,partial viewing,few large,Stimulus\all_stim\occlusion\partialviewing\fewlarge\control\fewlarge_partialViewing_control_building9.png,mask_img/000000005131.png,experiment,e,r,899.8838154999976
5,24,Female,Right,131,Block 1,0.7329768000054173,0.025,true,building,building,occlusion,control,mask,partial viewing,many small,Stimulus\all_stim\occlusion\partialviewing\manysmall\control\manysmall_partialViewing_control_building10.png,mask_img/000000035857.png,experiment,r,r,901.4443686000013
5,24,Female,Right,132,Block 1,1.0470292000100017,0.05,false,bird,firehydrant,occlusion,low,mask,partial viewing,many small,Stimulus\all_stim\occlusion\partialviewing\manysmall\low\manysmall_partialViewing_low_bird1.png,mask_img/000000055694.png,experiment,q,w,903.1964440000011
5,24,Female,Right,133,Block 1,2.2679230000067037,0.025,false,cat,building,occlusion,high,mask,partial viewing,few large,Stimulus\all_stim\occlusion\partialviewing\fewlarge\high\fewlarge_partialViewing_high_cat10.png,mask_img/000000017308.png,experiment,r,i,906.5483205000055
5,24,Female,Right,134,Block 1,1.511776400002418,0.05,true,bird,bird,occlusion,control,mask,partial viewing,many small,Stimulus\all_stim\occlusion\partialviewing\manysmall\control\manysmall_partialViewing_control_bird5.png,mask_img/000000034930.png,experiment,w,w,909.1245578999951
5,24,Female,Right,135,Block 1,1.2324400000070455,0.1,false,bus,building,occlusion,high,mask,partial viewing,few large,Stimulus\all_stim\occlusion\partialviewing\fewlarge\high\fewlarge_partialViewing_high_bus2.png,mask_img/000000015862.png,experiment,r,o,911.1082913999999
5,24,Female,Right,136,Block 1,1.22634389999439,0.05,true,cat,cat,occlusion,control,mask,partial viewing,few large,Stimulus\all_stim\occlusion\partialviewing\fewlarge\control\fewlarge_partialViewing_control_cat9.png,mask_img/000000007558.png,experiment,i,i,913.2599865000084
5,24,Female,Right,137,Block 1,1.2788921000028495,0.025,true,bird,bird,occlusion,control,mask,partial viewing,many small,Stimulus\all_stim\occlusion\partialviewing\manysmall\control\manysmall_partialViewing_control_bird4.png,mask_img/000000034691.png,experiment,w,w,915.3084999999992
5,24,Female,Right,138,Block 1,1.0263430000049993,0.1,true,bird,bird,occlusion,high,mask,partial viewing,many small,Stimulus\all_stim\occlusion\partialviewing\manysmall\high\manysmall_partialViewing_high_bird3.png,mask_img/000000044123.png,experiment,w,w,917.3401439000008
5,24,Female,Right,139,Block 1,0.713580900002853,0.025,true,banana,banana,occlusion,control,mask,partial viewing,few large,Stimulus\all_stim\occlusion\partialviewing\fewlarge\control\fewlarge_partialViewing_control_banana5.png,mask_img/000000000459.png,experiment,p,p,919.0279816999973
5,24,Female,Right,140,Block 1,0.7390331000060542,0.1,true,person,person,occlusion,control,mask,partial viewing,many small,Stimulus\all_stim\occlusion\partialviewing\manysmall\control\manysmall_partialViewing_control_person3.png,mask_img/000000040008.png,experiment,u,u,920.6523324000009
5,24,Female,Right,141,Block 1,1.5248228999989806,0.1,true,person,person,occlusion,low,mask,partial viewing,few large,Stimulus\all_stim\occlusion\partialviewing\fewlarge\low\fewlarge_partialViewing_low_person6.png,mask_img/000000030267.png,experiment,u,u,922.9157447000034
5,24,Female,Right,142,Block 1,1.0300524000049336,0.1,true,cat,cat,occlusion,control,mask,partial viewing,many small,Stimulus\all_stim\occlusion\partialviewing\manysmall\control\manysmall_partialViewing_control_cat8.png,mask_img/000000038817.png,experiment,i,i,924.8362397000019
5,24,Female,Right,143,Block 1,0.7632467999937944,0.1,true,firehydrant,firehydrant,occlusion,control,mask,partial viewing,many small,Stimulus\all_stim\occlusion\partialviewing\manysmall\control\manysmall_partialViewing_control_firehydrant2.png,mask_img/000000039089.png,experiment,q,q,926.5399349000072
5,24,Female,Right,144,Block 1,0.6984878999937791,0.1,true,firehydrant,firehydrant,occlusion,low,mask,partial viewing,many small,Stimulus\all_stim\occlusion\partialviewing\manysmall\low\manysmall_partialViewing_low_firehydrant4.png,mask_img/000000060610.png,experiment,q,q,956.0285445000045
5,24,Female,Right,145,Block 2,0.7606851000018651,0.1,true,bird,bird,occlusion,low,mask,partial viewing,few large,Stimulus\all_stim\occlusion\partialviewing\fewlarge\low\fewlarge_partialViewing_low_bird2.png,mask_img/000000024125.png,experiment,w,w,957.6361705000018
5,24,Female,Right,146,Block 2,0.8514690000010887,0.025,true,bus,bus,occlusion,low,mask,partial viewing,many small,Stimulus\all_stim\occlusion\partialviewing\manysmall\low\manysmall_partialViewing_low_bus8.png,mask_img/000000058873.png,experiment,o,o,959.3557429000066
5,24,Female,Right,147,Block 2,0.7810800000006566,0.05,true,person,person,occlusion,control,mask,partial viewing,few large,Stimulus\all_stim\occlusion\partialviewing\fewlarge\control\fewlarge_partialViewing_control_person6.png,mask_img/000000009469.png,experiment,u,u,960.8437570999959
5,24,Female,Right,148,Block 2,0.7049364999984391,0.1,true,bus,bus,occlusion,low,mask,partial viewing,many small,Stimulus\all_stim\occlusion\partialviewing\manysmall\low\manysmall_partialViewing_low_bus5.png,mask_img/000000058801.png,experiment,o,o,962.5330143000028
5,24,Female,Right,149,Block 2,0.8596294000017224,0.05,true,bird,bird,occlusion,low,mask,partial viewing,many small,Stimulus\all_stim\occlusion\partialviewing\manysmall\low\manysmall_partialViewing_low_bird8.png,mask_img/000000056137.png,experiment,w,w,964.4843225000077
5,24,Female,Right,150,Block 2,0.7296614000078989,0.025,true,firehydrant,firehydrant,occlusion,control,mask,partial viewing,few large,Stimulus\all_stim\occlusion\partialviewing\fewlarge\control\fewlarge_partialViewing_control_firehydrant2.png,mask_img/000000007934.png,experiment,q,q,965.9558079999988
5,24,Female,Right,151,Block 2,1.1812875000032363,0.1,true,cat,cat,occlusion,low,mask,partial viewing,many small,Stimulus\all_stim\occlusion\partialviewing\manysmall\low\manysmall_partialViewing_low_cat4.png,mask_img/000000059483.png,experiment,i,i,967.852041399994
5,24,Female,Right,152,Block 2,0.7147400999965612,0.025,true,bus,bus,occlusion,low,mask,partial viewing,few large,Stimulus\all_stim\occlusion\partialviewing\fewlarge\low\fewlarge_partialViewing_low_bus10.png,mask_img/000000025855.png,experiment,o,o,969.6998918000027
5,24,Female,Right,153,Block 2,0.7959627999953227,0.05,true,bus,bus,occlusion,control,mask,partial viewing,few large,Stimulus\all_stim\occlusion\partialviewing\fewlarge\control\fewlarge_partialViewing_control_bus7.png,mask_img/000000006146.png,experiment,o,o,971.2601987999951
5,24,Female,Right,154,Block 2,0.9009799999912502,0.05,true,firehydrant,firehydrant,occlusion,control,mask,partial viewing,many small,Stimulus\all_stim\occlusion\partialviewing\manysmall\control\manysmall_partialViewing_control_firehydrant1.png,mask_img/000000039012.png,experiment,q,q,972.8445710999949
5,24,Female,Right,155,Block 2,1.15865009999834,0.1,true,tree,tree,occlusion,control,mask,partial viewing,few large,Stimulus\all_stim\occlusion\partialviewing\fewlarge\control\fewlarge_partialViewing_control_tree10.png,mask_img/000000010414.png,experiment,e,e,974.8115017999953
5,24,Female,Right,156,Block 2,1.3196281999989878,0.025,true,cat,cat,occlusion,control,mask,partial viewing,many small,Stimulus\all_stim\occlusion\partialviewing\manysmall\control\manysmall_partialViewing_control_cat7.png,mask_img/000000038798.png,experiment,i,i,977.2441557999991
5,24,Female,Right,157,Block 2,0.7188107999972999,0.05,true,cat,cat,occlusion,control,mask,partial viewing,few large,Stimulus\all_stim\occlusion\partialviewing\fewlarge\control\fewlarge_partialViewing_control_cat5.png,mask_img/000000006870.png,experiment,i,i,978.9562312000053
5,24,Female,Right,158,Block 2,0.887106499998481,0.05,false,firehydrant,cat,occlusion,high,mask,partial viewing,many small,Stimulus\all_stim\occlusion\partialviewing\manysmall\high\manysmall_partialViewing_high_firehydrant4.png,mask_img/000000050412.png,experiment,i,q,980.4998016000027
5,24,Female,Right,159,Block 2,0.9740323000005446,0.05,false,bus,building,occlusion,high,mask,partial viewing,many small,Stimulus\all_stim\occlusion\partialviewing\manysmall\high\manysmall_partialViewing_high_bus3.png,mask_img/000000047229.png,experiment,r,o,982.557852900005
5,24,Female,Right,160,Block 2,0.6888380000018515,0.05,true,banana,banana,occlusion,low,mask,partial viewing,many small,Stimulus\all_stim\occlusion\partialviewing\manysmall\low\manysmall_partialViewing_low_banana3.png,mask_img/000000054875.png,experiment,p,p,984.1477856999991
5,24,Female,Right,161,Block 2,0.8199034000135725,0.1,false,tree,bird,occlusion,low,mask,partial viewing,many small,Stimulus\all_stim\occlusion\partialviewing\manysmall\low\manysmall_partialViewing_low_tree7.png,mask_img/000000063754.png,experiment,w,e,985.685582399994
5,24,Female,Right,162,Block 2,1.583614300005138,0.05,true,banana,banana,occlusion,high,mask,partial viewing,few large,Stimulus\all_stim\occlusion\partialviewing\fewlarge\high\fewlarge_partialViewing_high_banana2.png,mask_img/000000012179.png,experiment,p,p,988.3731954999967
5,24,Female,Right,163,Block 2,0.7983085000014398,0.05,true,tree,tree,occlusion,high,mask,partial viewing,few large,Stimulus\all_stim\occlusion\partialviewing\fewlarge\high\fewlarge_partialViewing_high_tree5.png,mask_img/000000022102.png,experiment,e,e,990.0278067000036
5,24,Female,Right,164,Block 2,0.8911850000004051,0.1,true,bird,bird,occlusion,high,mask,partial viewing,many small,Stimulus\all_stim\occlusion\partialviewing\manysmall\high\manysmall_partialViewing_high_bird1.png,mask_img/000000043966.png,experiment,w,w,991.8439364000078
5,24,Female,Right,165,Block 2,0.7304188999987673,0.05,true,bus,bus,occlusion,low,mask,partial viewing,few large,Stimulus\all_stim\occlusion\partialviewing\fewlarge\low\fewlarge_partialViewing_low_bus5.png,mask_img/000000026497.png,experiment,o,o,993.7159628999943
5,24,Female,Right,166,Block 2,1.1464646000094945,0.025,true,tree,tree,occlusion,high,mask,partial viewing,many small,Stimulus\all_stim\occlusion\partialviewing\manysmall\high\manysmall_partialViewing_high_tree2.png,mask_img/000000052901.png,experiment,e,e,995.5882130999962
5,24,Female,Right,167,Block 2,0.92537280000397,0.025,true,bus,bus,occlusion,low,mask,partial viewing,few large,Stimulus\all_stim\occlusion\partialviewing\fewlarge\low\fewlarge_partialViewing_low_bus2.png,mask_img/000000025858.png,experiment,o,o,997.2281030000013
5,24,Female,Right,168,Block 2,0.7662258999916958,0.05,true,building,building,occlusion,low,mask,partial viewing,few large,Stimulus\all_stim\occlusion\partialviewing\fewlarge\low\fewlarge_partialViewing_low_building2.png,mask_img/000000024702.png,experiment,r,r,999.1157470000035
5,24,Female,Right,169,Block 2,0.9607858000090346,0.025,false,firehydrant,building,occlusion,high,mask,partial viewing,many small,Stimulus\all_stim\occlusion\partialviewing\manysmall\high\manysmall_partialViewing_high_firehydrant3.png,mask_img/000000050276.png,experiment,r,q,1001.1399651999964
5,24,Female,Right,170,Block 2,0.7046199000033084,0.025,true,person,person,occlusion,low,mask,partial viewing,few large,Stimulus\all_stim\occlusion\partialviewing\fewlarge\low\fewlarge_partialViewing_low_person1.png,mask_img/000000029090.png,experiment,u,u,1002.9003394000028
5,24,Female,Right,171,Block 2,1.3082215999893378,0.05,true,banana,banana,occlusion,control,mask,partial viewing,many small,Stimulus\all_stim\occlusion\partialviewing\manysmall\control\manysmall_partialViewing_control_banana3.png,mask_img/000000033323.png,experiment,p,p,1005.0529431000032
5,24,Female,Right,172,Block 2,1.1761014999938197,0.05,true,firehydrant,firehydrant,occlusion,control,mask,partial viewing,many small,Stimulus\all_stim\occlusion\partialviewing\manysmall\control\manysmall_partialViewing_control_firehydrant2.png,mask_img/000000039089.png,experiment,q,q,1007.3318280999956
5,24,Female,Right,173,Block 2,1.062078399991151,0.025,true,bird,bird,occlusion,low,mask,partial viewing,few large,Stimulus\all_stim\occlusion\partialviewing\fewlarge\low\fewlarge_partialViewing_low_bird3.png,mask_img/000000024157.png,experiment,w,w,1009.4520696999971
5,24,Female,Right,174,Block 2,1.479381299999659,0.1,true,bus,bus,occlusion,high,mask,partial viewing,many small,Stimulus\all_stim\occlusion\partialviewing\manysmall\high\manysmall_partialViewing_high_bus2.png,mask_img/000000046852.png,experiment,o,o,1011.964087100001
5,24,Female,Right,175,Block 2,0.6904170999914641,0.05,true,firehydrant,firehydrant,occlusion,control,mask,partial viewing,many small,Stimulus\all_stim\occlusion\partialviewing\manysmall\control\manysmall_partialViewing_control_firehydrant4.png,mask_img/000000039141.png,experiment,q,q,1013.5084041000082
5,24,Female,Right,176,Block 2,0.7451263999973889,0.05,true,person,person,occlusion,low,mask,partial viewing,few large,Stimulus\all_stim\occlusion\partialviewing\fewlarge\low\fewlarge_partialViewing_low_person3.png,mask_img/000000029506.png,experiment,u,u,1015.0764027999976
5,24,Female,Right,177,Block 2,2.1621011000097496,0.05,true,bird,bird,occlusion,high,mask,partial viewing,many small,Stimulus\all_stim\occlusion\partialviewing\manysmall\high\manysmall_partialViewing_high_bird6.png,mask_img/000000044523.png,experiment,w,w,1018.0442832999979
5,24,Female,Right,178,Block 2,1.1138762999908067,0.05,true,firehydrant,firehydrant,occlusion,control,mask,partial viewing,few large,Stimulus\all_stim\occlusion\partialviewing\fewlarge\control\fewlarge_partialViewing_control_firehydrant8.png,mask_img/000000008193.png,experiment,q,q,1020.0920645000006
5,24,Female,Right,179,Block 2,2.132608700005221,0.05,false,banana,building,occlusion,high,mask,partial viewing,many small,Stimulus\all_stim\occlusion\partialviewing\manysmall\high\manysmall_partialViewing_high_banana5.png,mask_img/000000042541.png,experiment,r,p,1023.1562266999972
5,24,Female,Right,180,Block 2,1.0156518000003416,0.05,true,cat,cat,occlusion,low,mask,partial viewing,many small,Stimulus\all_stim\occlusion\partialviewing\manysmall\low\manysmall_partialViewing_low_cat6.png,mask_img/000000059918.png,experiment,i,i,1024.9721964000055
5,24,Female,Right,181,Block 2,0.7506281999958446,0.1,true,cat,cat,occlusion,control,mask,partial viewing,many small,Stimulus\all_stim\occlusion\partialviewing\manysmall\control\manysmall_partialViewing_control_cat6.png,mask_img/000000038753.png,experiment,i,i,1026.667737900003
5,24,Female,Right,182,Block 2,1.2525928000104614,0.1,true,cat,cat,occlusion,control,mask,partial viewing,few large,Stimulus\all_stim\occlusion\partialviewing\fewlarge\control\fewlarge_partialViewing_control_cat5.png,mask_img/000000006870.png,experiment,i,i,1028.7801531000005
5,24,Female,Right,183,Block 2,0.6849017000058666,0.1,true,bus,bus,occlusion,control,mask,partial viewing,many small,Stimulus\all_stim\occlusion\partialviewing\manysmall\control\manysmall_partialViewing_control_bus9.png,mask_img/000000037864.png,experiment,o,o,1030.4200290000008
5,24,Female,Right,184,Block 2,0.8874718000006396,0.1,true,bus,bus,occlusion,control,mask,partial viewing,few large,Stimulus\all_stim\occlusion\partialviewing\fewlarge\control\fewlarge_partialViewing_control_bus9.png,mask_img/000000006263.png,experiment,o,o,1032.3881943000015
5,24,Female,Right,185,Block 2,0.9814812999975402,0.1,false,bird,person,occlusion,high,mask,partial viewing,many small,Stimulus\all_stim\occlusion\partialviewing\manysmall\high\manysmall_partialViewing_high_bird9.png,mask_img/000000044946.png,experiment,u,w,1034.4201189000014
5,24,Female,Right,186,Block 2,0.8755426999996416,0.05,true,firehydrant,firehydrant,occlusion,control,mask,partial viewing,many small,Stimulus\all_stim\occlusion\partialviewing\manysmall\control\manysmall_partialViewing_control_firehydrant6.png,mask_img/000000039406.png,experiment,q,q,1036.2682329999952
5,24,Female,Right,187,Block 2,1.8347317000007024,0.05,false,bird,person,occlusion,high,mask,partial viewing,many small,Stimulus\all_stim\occlusion\partialviewing\manysmall\high\manysmall_partialViewing_high_bird2.png,mask_img/000000044117.png,experiment,u,w,1039.1157099999982
5,24,Female,Right,188,Block 2,0.8757717999978922,0.05,true,person,person,occlusion,low,mask,partial viewing,few large,Stimulus\all_stim\occlusion\partialviewing\fewlarge\low\fewlarge_partialViewing_low_person10.png,mask_img/000000029128.png,experiment,u,u,1040.859922100004
5,24,Female,Right,189,Block 2,1.1146742000128143,0.025,true,banana,banana,occlusion,low,mask,partial viewing,many small,Stimulus\all_stim\occlusion\partialviewing\manysmall\low\manysmall_partialViewing_low_banana2.png,mask_img/000000054759.png,experiment,p,p,1042.9320787000033
5,24,Female,Right,190,Block 2,0.8450366000033682,0.05,true,firehydrant,firehydrant,occlusion,high,mask,partial viewing,few large,Stimulus\all_stim\occlusion\partialviewing\fewlarge\high\fewlarge_partialViewing_high_firehydrant5.png,mask_img/000000018982.png,experiment,q,q,1044.5878847999993
5,24,Female,Right,191,Block 2,0.8175605999858817,0.1,true,firehydrant,firehydrant,occlusion,control,mask,partial viewing,few large,Stimulus\all_stim\occlusion\partialviewing\fewlarge\control\fewlarge_partialViewing_control_firehydrant4.png,mask_img/000000007952.png,experiment,q,q,1046.2443880000064
5,24,Female,Right,192,Block 2,0.709063000002061,0.025,true,building,building,occlusion,control,mask,partial viewing,many small,Stimulus\all_stim\occlusion\partialviewing\manysmall\control\manysmall_partialViewing_control_building8.png,mask_img/000000036091.png,experiment,r,r,1047.9160014999943
5,24,Female,Right,193,Block 2,0.8291692000057083,0.05,true,banana,banana,occlusion,control,mask,partial viewing,many small,Stimulus\all_stim\occlusion\partialviewing\manysmall\control\manysmall_partialViewing_control_banana1.png,mask_img/000000033073.png,experiment,p,p,1049.5638789000077
5,24,Female,Right,194,Block 2,0.762294700005441,0.05,false,cat,bus,occlusion,control,mask,partial viewing,many small,Stimulus\all_stim\occlusion\partialviewing\manysmall\control\manysmall_partialViewing_control_cat2.png,mask_img/000000038375.png,experiment,o,i,1051.1240605000057
5,24,Female,Right,195,Block 2,0.7668088999926113,0.1,true,cat,cat,occlusion,low,mask,partial viewing,many small,Stimulus\all_stim\occlusion\partialviewing\manysmall\low\manysmall_partialViewing_low_cat6.png,mask_img/000000059918.png,experiment,i,i,1052.7482019000017
5,24,Female,Right,196,Block 2,0.9614712999900803,0.025,false,person,cat,occlusion,high,mask,partial viewing,few large,Stimulus\all_stim\occlusion\partialviewing\fewlarge\high\fewlarge_partialViewing_high_person5.png,mask_img/000000020381.png,experiment,i,u,1054.6438015000022
5,24,Female,Right,197,Block 2,0.7222342000022763,0.05,true,cat,cat,occlusion,control,mask,partial viewing,many small,Stimulus\all_stim\occlusion\partialviewing\manysmall\control\manysmall_partialViewing_control_cat4.png,mask_img/000000038479.png,experiment,i,i,1056.0275786999991
5,24,Female,Right,198,Block 2,0.6940842000039993,0.025,true,banana,banana,occlusion,control,mask,partial viewing,many small,Stimulus\all_stim\occlusion\partialviewing\manysmall\control\manysmall_partialViewing_control_banana9.png,mask_img/000000033955.png,experiment,p,p,1057.4117200000037
5,24,Female,Right,199,Block 2,1.1618286000011722,0.025,true,firehydrant,firehydrant,occlusion,control,mask,partial viewing,few large,Stimulus\all_stim\occlusion\partialviewing\fewlarge\control\fewlarge_partialViewing_control_firehydrant7.png,mask_img/000000008053.png,experiment,q,q,1059.5325900000025
5,24,Female,Right,200,Block 2,0.8404445000051055,0.1,true,cat,cat,occlusion,control,mask,partial viewing,few large,Stimulus\all_stim\occlusion\partialviewing\fewlarge\control\fewlarge_partialViewing_control_cat2.png,mask_img/000000006489.png,experiment,i,i,1061.0201108000037
5,24,Female,Right,201,Block 2,0.9289100000023609,0.1,true,banana,banana,occlusion,high,mask,partial viewing,few large,Stimulus\all_stim\occlusion\partialviewing\fewlarge\high\fewlarge_partialViewing_high_banana6.png,mask_img/000000012548.png,experiment,p,p,1062.9080743999948
5,24,Female,Right,202,Block 2,0.7709124999964843,0.1,true,bird,bird,occlusion,control,mask,partial viewing,many small,Stimulus\all_stim\occlusion\partialviewing\manysmall\control\manysmall_partialViewing_control_bird8.png,mask_img/000000035190.png,experiment,w,w,1064.5082114999968
5,24,Female,Right,203,Block 2,0.7931277000025148,0.025,true,banana,banana,occlusion,high,mask,partial viewing,few large,Stimulus\all_stim\occlusion\partialviewing\fewlarge\high\fewlarge_partialViewing_high_banana8.png,mask_img/000000012733.png,experiment,p,p,1066.4201192000037
5,24,Female,Right,204,Block 2,0.9771828999946592,0.025,true,person,person,occlusion,control,mask,partial viewing,many small,Stimulus\all_stim\occlusion\partialviewing\manysmall\control\manysmall_partialViewing_control_person5.png,mask_img/000000040275.png,experiment,u,u,1068.3236507999973
5,24,Female,Right,205,Block 2,0.9914212000003317,0.025,true,bird,bird,occlusion,control,mask,partial viewing,many small,Stimulus\all_stim\occlusion\partialviewing\manysmall\control\manysmall_partialViewing_control_bird5.png,mask_img/000000034930.png,experiment,w,w,1070.180369099995
5,24,Female,Right,206,Block 2,1.10317170000053,0.1,true,bus,bus,occlusion,low,mask,partial viewing,few large,Stimulus\all_stim\occlusion\partialviewing\fewlarge\low\fewlarge_partialViewing_low_bus3.png,mask_img/000000025997.png,experiment,o,o,1072.244146500001
5,24,Female,Right,207,Block 2,0.7626756999961799,0.025,true,bus,bus,occlusion,low,mask,partial viewing,few large,Stimulus\all_stim\occlusion\partialviewing\fewlarge\low\fewlarge_partialViewing_low_bus7.png,mask_img/000000026720.png,experiment,o,o,1073.8596117999987
5,24,Female,Right,208,Block 2,0.8917688000074122,0.1,false,bus,tree,occlusion,high,mask,partial viewing,many small,Stimulus\all_stim\occlusion\partialviewing\manysmall\high\manysmall_partialViewing_high_bus3.png,mask_img/000000047229.png,experiment,e,o,1075.6923486000014
5,24,Female,Right,209,Block 2,2.408995599995251,0.05,false,cat,bird,occlusion,low,mask,partial viewing,many small,Stimulus\all_stim\occlusion\partialviewing\manysmall\low\manysmall_partialViewing_low_cat8.png,mask_img/000000060245.png,experiment,w,i,1078.972181899997
5,24,Female,Right,210,Block 2,0.9431020000047283,0.025,true,firehydrant,firehydrant,occlusion,control,mask,partial viewing,many small,Stimulus\all_stim\occlusion\partialviewing\manysmall\control\manysmall_partialViewing_control_firehydrant4.png,mask_img/000000039141.png,experiment,q,q,1080.5644410999957
5,24,Female,Right,211,Block 2,0.9602089999971213,0.1,true,bird,bird,occlusion,high,mask,partial viewing,few large,Stimulus\all_stim\occlusion\partialviewing\fewlarge\high\fewlarge_partialViewing_high_bird5.png,mask_img/000000013914.png,experiment,w,w,1082.3563367000024
5,24,Female,Right,212,Block 2,0.9593632000032812,0.1,true,bus,bus,occlusion,high,mask,partial viewing,many small,Stimulus\all_stim\occlusion\partialviewing\manysmall\high\manysmall_partialViewing_high_bus8.png,mask_img/000000048169.png,experiment,o,o,1084.2126932999963
5,24,Female,Right,213,Block 2,2.9021913000033237,0.025,false,cat,building,occlusion,high,mask,partial viewing,many small,Stimulus\all_stim\occlusion\partialviewing\manysmall\high\manysmall_partialViewing_high_cat9.png,mask_img/000000049933.png,experiment,r,i,1087.8681803000072
5,24,Female,Right,214,Block 2,0.7135898000124143,0.1,true,person,person,occlusion,low,mask,partial viewing,few large,Stimulus\all_stim\occlusion\partialviewing\fewlarge\low\fewlarge_partialViewing_low_person8.png,mask_img/000000030611.png,experiment,u,u,1089.5642092000053
5,24,Female,Right,215,Block 2,0.7965794000047026,0.05,true,firehydrant,firehydrant,occlusion,low,mask,partial viewing,few large,Stimulus\all_stim\occlusion\partialviewing\fewlarge\low\fewlarge_partialViewing_low_firehydrant2.png,mask_img/000000028517.png,experiment,q,q,1091.0758473000024
5,24,Female,Right,216,Block 2,1.7387276999943424,0.1,true,building,building,occlusion,control,mask,partial viewing,few large,Stimulus\all_stim\occlusion\partialviewing\fewlarge\control\fewlarge_partialViewing_control_building5.png,mask_img/000000004642.png,experiment,r,r,1093.7333552000055
5,24,Female,Right,217,Block 2,1.442267999998876,0.1,true,cat,cat,occlusion,high,mask,partial viewing,few large,Stimulus\all_stim\occlusion\partialviewing\fewlarge\high\fewlarge_partialViewing_high_cat3.png,mask_img/000000017356.png,experiment,i,i,1096.0044690000068
5,24,Female,Right,218,Block 2,0.8541428000025917,0.05,true,bus,bus,occlusion,control,mask,partial viewing,many small,Stimulus\all_stim\occlusion\partialviewing\manysmall\control\manysmall_partialViewing_control_bus1.png,mask_img/000000036255.png,experiment,o,o,1097.6039987999975
5,24,Female,Right,219,Block 2,0.9408675000013318,0.025,true,cat,cat,occlusion,control,mask,partial viewing,few large,Stimulus\all_stim\occlusion\partialviewing\fewlarge\control\fewlarge_partialViewing_control_cat4.png,mask_img/000000006842.png,experiment,i,i,1099.2040834000072
5,24,Female,Right,220,Block 2,0.8851352000056067,0.1,false,banana,cat,occlusion,high,mask,partial viewing,many small,Stimulus\all_stim\occlusion\partialviewing\manysmall\high\manysmall_partialViewing_high_banana9.png,mask_img/000000043579.png,experiment,i,p,1100.884337800002
5,24,Female,Right,221,Block 2,1.06001240000478,0.025,true,cat,cat,occlusion,high,mask,partial viewing,many small,Stimulus\all_stim\occlusion\partialviewing\manysmall\high\manysmall_partialViewing_high_cat7.png,mask_img/000000049602.png,experiment,i,i,1102.7798305000033
5,24,Female,Right,222,Block 2,1.0688203000026988,0.05,true,banana,banana,occlusion,low,mask,partial viewing,few large,Stimulus\all_stim\occlusion\partialviewing\fewlarge\low\fewlarge_partialViewing_low_banana9.png,mask_img/000000023967.png,experiment,p,p,1104.7079964000004
5,24,Female,Right,223,Block 2,1.4977912999893306,0.05,false,person,banana,occlusion,high,mask,partial viewing,few large,Stimulus\all_stim\occlusion\partialviewing\fewlarge\high\fewlarge_partialViewing_high_person5.png,mask_img/000000020381.png,experiment,p,u,1107.3237367999973
5,24,Female,Right,224,Block 2,0.7784897000092315,0.05,true,person,person,occlusion,control,mask,partial viewing,many small,Stimulus\all_stim\occlusion\partialviewing\manysmall\control\manysmall_partialViewing_control_person4.png,mask_img/000000040042.png,experiment,u,u,1109.0282401000004
5,24,Female,Right,225,Block 2,1.1441325999912806,0.05,true,tree,tree,occlusion,low,mask,partial viewing,few large,Stimulus\all_stim\occlusion\partialviewing\fewlarge\low\fewlarge_partialViewing_low_tree7.png,mask_img/000000032906.png,experiment,e,e,1111.0198022999975
5,24,Female,Right,226,Block 2,1.1533951000019442,0.05,true,cat,cat,occlusion,control,mask,partial viewing,many small,Stimulus\all_stim\occlusion\partialviewing\manysmall\control\manysmall_partialViewing_control_cat10.png,mask_img/000000038178.png,experiment,i,i,1113.0038364000065
5,24,Female,Right,227,Block 2,1.0599804999947082,0.025,true,building,building,occlusion,high,mask,partial viewing,few large,Stimulus\all_stim\occlusion\partialviewing\fewlarge\high\fewlarge_partialViewing_high_building8.png,mask_img/000000015366.png,experiment,r,r,1115.092063300006
5,24,Female,Right,228,Block 2,1.0579838999983622,0.1,true,person,person,occlusion,control,mask,partial viewing,many small,Stimulus\all_stim\occlusion\partialviewing\manysmall\control\manysmall_partialViewing_control_person10.png,mask_img/000000039778.png,experiment,u,u,1117.171990799994
5,24,Female,Right,229,Block 2,0.7021374000032665,0.1,true,banana,banana,occlusion,low,mask,partial viewing,many small,Stimulus\all_stim\occlusion\partialviewing\manysmall\low\manysmall_partialViewing_low_banana4.png,mask_img/000000055202.png,experiment,p,p,1118.9883506000042
5,24,Female,Right,230,Block 2,0.7471332999994047,0.1,true,bus,bus,occlusion,low,mask,partial viewing,many small,Stimulus\all_stim\occlusion\partialviewing\manysmall\low\manysmall_partialViewing_low_bus8.png,mask_img/000000058873.png,experiment,o,o,1120.4363654000044
5,24,Female,Right,231,Block 2,0.7522273999929894,0.025,true,firehydrant,firehydrant,occlusion,low,mask,partial viewing,many small,Stimulus\all_stim\occlusion\partialviewing\manysmall\low\manysmall_partialViewing_low_firehydrant9.png,mask_img/000000061693.png,experiment,q,q,1121.9478929000034
5,24,Female,Right,232,Block 2,1.1875951000110945,0.1,true,tree,tree,occlusion,high,mask,partial viewing,many small,Stimulus\all_stim\occlusion\partialviewing\manysmall\high\manysmall_partialViewing_high_tree6.png,mask_img/000000053539.png,experiment,e,e,1124.0044734999974
5,24,Female,Right,233,Block 2,0.8564752000092994,0.05,true,tree,tree,occlusion,high,mask,partial viewing,many small,Stimulus\all_stim\occlusion\partialviewing\manysmall\high\manysmall_partialViewing_high_tree3.png,mask_img/000000052936.png,experiment,e,e,1125.6356420000084
5,24,Female,Right,234,Block 2,1.1254546999989543,0.025,false,firehydrant,building,occlusion,high,mask,partial viewing,many small,Stimulus\all_stim\occlusion\partialviewing\manysmall\high\manysmall_partialViewing_high_firehydrant9.png,mask_img/000000051164.png,experiment,r,q,1127.5075431000005
5,24,Female,Right,235,Block 2,0.9511946999991778,0.025,true,cat,cat,occlusion,control,mask,partial viewing,few large,Stimulus\all_stim\occlusion\partialviewing\fewlarge\control\fewlarge_partialViewing_control_cat5.png,mask_img/000000006870.png,experiment,i,i,1129.475628100001
5,24,Female,Right,236,Block 2,0.6865260999911698,0.025,true,person,person,occlusion,control,mask,partial viewing,few large,Stimulus\all_stim\occlusion\partialviewing\fewlarge\control\fewlarge_partialViewing_control_person2.png,mask_img/000000008787.png,experiment,u,u,1130.8601161999977
5,24,Female,Right,237,Block 2,0.6926377000054345,0.025,true,banana,banana,occlusion,control,mask,partial viewing,few large,Stimulus\all_stim\occlusion\partialviewing\fewlarge\control\fewlarge_partialViewing_control_banana9.png,mask_img/000000000731.png,experiment,p,p,1132.3474462000013
5,24,Female,Right,238,Block 2,0.8631441999896197,0.025,true,bird,bird,occlusion,low,mask,partial viewing,few large,Stimulus\all_stim\occlusion\partialviewing\fewlarge\low\fewlarge_partialViewing_low_bird9.png,mask_img/000000024530.png,experiment,w,w,1134.123965100007
5,24,Female,Right,239,Block 2,0.7685611000051722,0.1,true,person,person,occlusion,control,mask,partial viewing,few large,Stimulus\all_stim\occlusion\partialviewing\fewlarge\control\fewlarge_partialViewing_control_person5.png,mask_img/000000009286.png,experiment,u,u,1135.5557155999995
5,24,Female,Right,240,Block 2,0.8294057000020985,0.05,true,tree,tree,occlusion,control,mask,partial viewing,many small,Stimulus\all_stim\occlusion\partialviewing\manysmall\control\manysmall_partialViewing_control_tree1.png,mask_img/000000040886.png,experiment,e,e,1137.0836987000075
5,24,Female,Right,241,Block 2,1.198430600008578,0.025,true,cat,cat,occlusion,low,mask,partial viewing,many small,Stimulus\all_stim\occlusion\partialviewing\manysmall\low\manysmall_partialViewing_low_cat9.png,mask_img/000000060387.png,experiment,i,i,1139.1803461999953
5,24,Female,Right,242,Block 2,0.9296861000038916,0.1,true,cat,cat,occlusion,high,mask,partial viewing,few large,Stimulus\all_stim\occlusion\partialviewing\fewlarge\high\fewlarge_partialViewing_high_cat2.png,mask_img/000000017352.png,experiment,i,i,1140.916320999997
5,24,Female,Right,243,Block 2,1.5074104000086663,0.05,true,cat,cat,occlusion,high,mask,partial viewing,few large,Stimulus\all_stim\occlusion\partialviewing\fewlarge\high\fewlarge_partialViewing_high_cat1.png,mask_img/000000017183.png,experiment,i,i,1143.3002820999973
5,24,Female,Right,244,Block 2,0.9628243000042858,0.05,true,bird,bird,occlusion,low,mask,partial viewing,few large,Stimulus\all_stim\occlusion\partialviewing\fewlarge\low\fewlarge_partialViewing_low_bird10.png,mask_img/000000023988.png,experiment,w,w,1145.075920400006
5,24,Female,Right,245,Block 2,0.8994162000017241,0.025,false,tree,cat,occlusion,low,mask,partial viewing,many small,Stimulus\all_stim\occlusion\partialviewing\manysmall\low\manysmall_partialViewing_low_tree1.png,mask_img/000000062690.png,experiment,i,e,1146.899986999997
5,24,Female,Right,246,Block 2,0.711519499993301,0.025,true,bus,bus,occlusion,control,mask,partial viewing,many small,Stimulus\all_stim\occlusion\partialviewing\manysmall\control\manysmall_partialViewing_control_bus6.png,mask_img/000000037174.png,experiment,o,o,1148.5555104999949
5,24,Female,Right,247,Block 2,0.7846327000006568,0.025,true,banana,banana,occlusion,high,mask,partial viewing,few large,Stimulus\all_stim\occlusion\partialviewing\fewlarge\high\fewlarge_partialViewing_high_banana4.png,mask_img/000000012377.png,experiment,p,p,1150.1158527999942
5,24,Female,Right,248,Block 2,0.7624955000064801,0.05,true,building,building,occlusion,low,mask,partial viewing,few large,Stimulus\all_stim\occlusion\partialviewing\fewlarge\low\fewlarge_partialViewing_low_building9.png,mask_img/000000025516.png,experiment,r,r,1151.659544299997
5,24,Female,Right,249,Block 2,0.8384933000052115,0.025,true,cat,cat,occlusion,low,mask,partial viewing,many small,Stimulus\all_stim\occlusion\partialviewing\manysmall\low\manysmall_partialViewing_low_cat3.png,mask_img/000000059442.png,experiment,i,i,1153.4519110999972
5,24,Female,Right,250,Block 2,0.8135684000008041,0.025,true,person,person,occlusion,high,mask,partial viewing,few large,Stimulus\all_stim\occlusion\partialviewing\fewlarge\high\fewlarge_partialViewing_high_person9.png,mask_img/000000021003.png,experiment,u,u,1154.8997507000022
5,24,Female,Right,251,Block 2,0.9871628999972017,0.05,true,tree,tree,occlusion,control,mask,partial viewing,few large,Stimulus\all_stim\occlusion\partialviewing\fewlarge\control\fewlarge_partialViewing_control_tree1.png,mask_img/000000010281.png,experiment,e,e,1156.9320961000049
5,24,Female,Right,252,Block 2,0.7605764000036288,0.05,true,banana,banana,occlusion,low,mask,partial viewing,many small,Stimulus\all_stim\occlusion\partialviewing\manysmall\low\manysmall_partialViewing_low_banana6.png,mask_img/000000055460.png,experiment,p,p,1158.5798056000058
5,24,Female,Right,253,Block 2,0.6783964999922318,0.025,true,firehydrant,firehydrant,occlusion,control,mask,partial viewing,few large,Stimulus\all_stim\occlusion\partialviewing\fewlarge\control\fewlarge_partialViewing_control_firehydrant4.png,mask_img/000000007952.png,experiment,q,q,1160.1718406
5,24,Female,Right,254,Block 2,0.9822214999876451,0.05,true,tree,tree,occlusion,high,mask,partial viewing,few large,Stimulus\all_stim\occlusion\partialviewing\fewlarge\high\fewlarge_partialViewing_high_tree1.png,mask_img/000000021206.png,experiment,e,e,1161.923802300007
5,24,Female,Right,255,Block 2,0.6915284999995492,0.025,true,bird,bird,occlusion,control,mask,partial viewing,few large,Stimulus\all_stim\occlusion\partialviewing\fewlarge\control\fewlarge_partialViewing_control_bird3.png,mask_img/000000001810.png,experiment,w,w,1163.4678812000056
5,24,Female,Right,256,Block 2,0.7498177999950713,0.05,true,bird,bird,occlusion,control,mask,partial viewing,few large,Stimulus\all_stim\occlusion\partialviewing\fewlarge\control\fewlarge_partialViewing_control_bird3.png,mask_img/000000001810.png,experiment,w,w,1164.9717827999993
5,24,Female,Right,257,Block 2,1.287084000010509,0.1,true,building,building,occlusion,low,mask,partial viewing,many small,Stimulus\all_stim\occlusion\partialviewing\manysmall\low\manysmall_partialViewing_low_building7.png,mask_img/000000058021.png,experiment,r,r,1167.363691000006
5,24,Female,Right,258,Block 2,1.2128796000033617,0.025,false,person,banana,occlusion,high,mask,partial viewing,many small,Stimulus\all_stim\occlusion\partialviewing\manysmall\high\manysmall_partialViewing_high_person4.png,mask_img/000000052087.png,experiment,p,u,1169.3801061999984
5,24,Female,Right,259,Block 2,0.8243126000015764,0.025,true,cat,cat,occlusion,high,mask,partial viewing,few large,Stimulus\all_stim\occlusion\partialviewing\fewlarge\high\fewlarge_partialViewing_high_cat4.png,mask_img/000000017364.png,experiment,i,i,1171.3077484999958
5,24,Female,Right,260,Block 2,1.1072973999980604,0.05,true,person,person,occlusion,control,mask,partial viewing,many small,Stimulus\all_stim\occlusion\partialviewing\manysmall\control\manysmall_partialViewing_control_person9.png,mask_img/000000040771.png,experiment,u,u,1173.4357130999997
5,24,Female,Right,261,Block 2,0.7851783000078285,0.05,true,building,building,occlusion,control,mask,partial viewing,few large,Stimulus\all_stim\occlusion\partialviewing\fewlarge\control\fewlarge_partialViewing_control_building8.png,mask_img/000000005105.png,experiment,r,r,1174.9325803999964
5,24,Female,Right,262,Block 2,0.7511553999938769,0.05,true,banana,banana,occlusion,low,mask,partial viewing,few large,Stimulus\all_stim\occlusion\partialviewing\fewlarge\low\fewlarge_partialViewing_low_banana8.png,mask_img/000000023656.png,experiment,p,p,1176.707876600005
5,24,Female,Right,263,Block 2,0.810016599993105,0.1,false,cat,bus,occlusion,low,mask,partial viewing,few large,Stimulus\all_stim\occlusion\partialviewing\fewlarge\low\fewlarge_partialViewing_low_cat10.png,mask_img/000000027319.png,experiment,o,i,1178.5482114000042
5,24,Female,Right,264,Block 2,1.1180944000079762,0.025,true,cat,cat,occlusion,low,mask,partial viewing,many small,Stimulus\all_stim\occlusion\partialviewing\manysmall\low\manysmall_partialViewing_low_cat6.png,mask_img/000000059918.png,experiment,i,i,1180.332490300003
5,24,Female,Right,265,Block 2,0.7404519999981858,0.05,true,firehydrant,firehydrant,occlusion,low,mask,partial viewing,many small,Stimulus\all_stim\occlusion\partialviewing\manysmall\low\manysmall_partialViewing_low_firehydrant4.png,mask_img/000000060610.png,experiment,q,q,1181.995964200003
5,24,Female,Right,266,Block 2,0.9497626999946078,0.1,false,cat,bird,occlusion,low,mask,partial viewing,many small,Stimulus\all_stim\occlusion\partialviewing\manysmall\low\manysmall_partialViewing_low_cat5.png,mask_img/000000059660.png,experiment,w,i,1183.6839667000022
5,24,Female,Right,267,Block 2,0.8073290000029374,0.1,true,person,person,occlusion,control,mask,partial viewing,few large,Stimulus\all_stim\occlusion\partialviewing\fewlarge\control\fewlarge_partialViewing_control_person3.png,mask_img/000000008920.png,experiment,u,u,1185.5483317000035
5,24,Female,Right,268,Block 2,0.7660038000030909,0.1,true,cat,cat,occlusion,control,mask,partial viewing,few large,Stimulus\all_stim\occlusion\partialviewing\fewlarge\control\fewlarge_partialViewing_control_cat6.png,mask_img/000000007179.png,experiment,i,i,1187.244458000001
5,24,Female,Right,269,Block 2,0.6934049999981653,0.05,true,person,person,occlusion,low,mask,partial viewing,many small,Stimulus\all_stim\occlusion\partialviewing\manysmall\low\manysmall_partialViewing_low_person9.png,mask_img/000000062427.png,experiment,u,u,1188.8599060999986
5,24,Female,Right,270,Block 2,0.9196445999987191,0.1,true,banana,banana,occlusion,control,mask,partial viewing,many small,Stimulus\all_stim\occlusion\partialviewing\manysmall\control\manysmall_partialViewing_control_banana7.png,mask_img/000000033861.png,experiment,p,p,1190.4440746000037
5,24,Female,Right,271,Block 2,0.8294265000004089,0.1,true,bird,bird,occlusion,low,mask,partial viewing,many small,Stimulus\all_stim\occlusion\partialviewing\manysmall\low\manysmall_partialViewing_low_bird1.png,mask_img/000000055694.png,experiment,w,w,1192.0042260000046
5,24,Female,Right,272,Block 2,0.74191179999616,0.1,true,person,person,occlusion,low,mask,partial viewing,few large,Stimulus\all_stim\occlusion\partialviewing\fewlarge\low\fewlarge_partialViewing_low_person4.png,mask_img/000000029730.png,experiment,u,u,1193.7077553999989
5,24,Female,Right,273,Block 2,0.8705816000001505,0.1,true,building,building,occlusion,low,mask,partial viewing,many small,Stimulus\all_stim\occlusion\partialviewing\manysmall\low\manysmall_partialViewing_low_building4.png,mask_img/000000057782.png,experiment,r,r,1195.5724469999986
5,24,Female,Right,274,Block 2,0.7803867000038736,0.05,true,firehydrant,firehydrant,occlusion,control,mask,partial viewing,few large,Stimulus\all_stim\occlusion\partialviewing\fewlarge\control\fewlarge_partialViewing_control_firehydrant3.png,mask_img/000000007946.png,experiment,q,q,1197.3721498999948
5,24,Female,Right,275,Block 2,0.8814661000069464,0.025,true,banana,banana,occlusion,high,mask,partial viewing,many small,Stimulus\all_stim\occlusion\partialviewing\manysmall\high\manysmall_partialViewing_high_banana10.png,mask_img/000000042196.png,experiment,p,p,1199.3160676999978
5,24,Female,Right,276,Block 2,1.080757600007928,0.05,true,bus,bus,occlusion,control,mask,partial viewing,many small,Stimulus\all_stim\occlusion\partialviewing\manysmall\control\manysmall_partialViewing_control_bus6.png,mask_img/000000037174.png,experiment,o,o,1201.3004939999955
5,24,Female,Right,277,Block 2,0.7864455999952042,0.025,true,bus,bus,occlusion,low,mask,partial viewing,many small,Stimulus\all_stim\occlusion\partialviewing\manysmall\low\manysmall_partialViewing_low_bus10.png,mask_img/000000058595.png,experiment,o,o,1203.1317401999986
5,24,Female,Right,278,Block 2,1.005843899998581,0.05,true,cat,cat,occlusion,low,mask,partial viewing,few large,Stimulus\all_stim\occlusion\partialviewing\fewlarge\low\fewlarge_partialViewing_low_cat9.png,mask_img/000000028231.png,experiment,i,i,1205.2599873
5,24,Female,Right,279,Block 2,0.8177846000035061,0.05,true,bird,bird,occlusion,control,mask,partial viewing,few large,Stimulus\all_stim\occlusion\partialviewing\fewlarge\control\fewlarge_partialViewing_control_bird9.png,mask_img/000000002892.png,experiment,w,w,1206.7557626000053
5,24,Female,Right,280,Block 2,0.774759299994912,0.025,true,building,building,occlusion,high,mask,partial viewing,many small,Stimulus\all_stim\occlusion\partialviewing\manysmall\high\manysmall_partialViewing_high_building5.png,mask_img/000000046029.png,experiment,r,r,1208.499531399997
5,24,Female,Right,281,Block 2,1.1523391999944579,0.1,true,bus,bus,occlusion,control,mask,partial viewing,few large,Stimulus\all_stim\occlusion\partialviewing\fewlarge\control\fewlarge_partialViewing_control_bus3.png,mask_img/000000005418.png,experiment,o,o,1210.5639255999995
5,24,Female,Right,282,Block 2,1.1056438999949023,0.025,false,bird,banana,occlusion,high,mask,partial viewing,many small,Stimulus\all_stim\occlusion\partialviewing\manysmall\high\manysmall_partialViewing_high_bird10.png,mask_img/000000044065.png,experiment,p,w,1212.771956800003
5,24,Female,Right,283,Block 2,1.1387397999933455,0.025,true,person,person,occlusion,high,mask,partial viewing,many small,Stimulus\all_stim\occlusion\partialviewing\manysmall\high\manysmall_partialViewing_high_person7.png,mask_img/000000052562.png,experiment,u,u,1214.6916203
5,24,Female,Right,284,Block 2,0.9309134999930393,0.1,true,cat,cat,occlusion,control,mask,partial viewing,many small,Stimulus\all_stim\occlusion\partialviewing\manysmall\control\manysmall_partialViewing_control_cat4.png,mask_img/000000038479.png,experiment,i,i,1216.2683889000036
5,24,Female,Right,285,Block 2,0.7831607999978587,0.1,true,person,person,occlusion,control,mask,partial viewing,many small,Stimulus\all_stim\occlusion\partialviewing\manysmall\control\manysmall_partialViewing_control_person4.png,mask_img/000000040042.png,experiment,u,u,1217.7954845000058
5,24,Female,Right,286,Block 2,0.8281510999950115,0.025,true,bird,bird,occlusion,low,mask,partial viewing,many small,Stimulus\all_stim\occlusion\partialviewing\manysmall\low\manysmall_partialViewing_low_bird1.png,mask_img/000000055694.png,experiment,w,w,1219.5154875000007
5,24,Female,Right,287,Block 2,0.8123580999963451,0.05,true,banana,banana,occlusion,high,mask,partial viewing,many small,Stimulus\all_stim\occlusion\partialviewing\manysmall\high\manysmall_partialViewing_high_banana10.png,mask_img/000000042196.png,experiment,p,p,1221.299645200008
5,24,Female,Right,288,Block 2,0.9250506999960635,0.1,true,tree,tree,occlusion,control,mask,partial viewing,many small,Stimulus\all_stim\occlusion\partialviewing\manysmall\control\manysmall_partialViewing_control_tree9.png,mask_img/000000041840.png,experiment,e,e,1245.1242218999978
5,24,Female,Right,289,Block 3,1.1147080000082497,0.025,true,firehydrant,firehydrant,occlusion,control,mask,partial viewing,many small,Stimulus\all_stim\occlusion\partialviewing\manysmall\control\manysmall_partialViewing_control_firehydrant6.png,mask_img/000000039406.png,experiment,q,q,1247.300009300001
5,24,Female,Right,290,Block 3,1.130651699990267,0.05,true,building,building,occlusion,high,mask,partial viewing,few large,Stimulus\all_stim\occlusion\partialviewing\fewlarge\high\fewlarge_partialViewing_high_building5.png,mask_img/000000014759.png,experiment,r,r,1249.2687338999967
5,24,Female,Right,291,Block 3,1.0525861000060104,0.1,true,person,person,occlusion,low,mask,partial viewing,few large,Stimulus\all_stim\occlusion\partialviewing\fewlarge\low\fewlarge_partialViewing_low_person1.png,mask_img/000000029090.png,experiment,u,u,1251.2999915999972
5,24,Female,Right,292,Block 3,0.7354172000050312,0.05,true,tree,tree,occlusion,high,mask,partial viewing,few large,Stimulus\all_stim\occlusion\partialviewing\fewlarge\high\fewlarge_partialViewing_high_tree2.png,mask_img/000000021641.png,experiment,e,e,1252.9398405999964
5,24,Female,Right,293,Block 3,0.8508225999976275,0.025,true,firehydrant,firehydrant,occlusion,control,mask,partial viewing,few large,Stimulus\all_stim\occlusion\partialviewing\fewlarge\control\fewlarge_partialViewing_control_firehydrant6.png,mask_img/000000008025.png,experiment,q,q,1254.771599700005
5,24,Female,Right,294,Block 3,2.2951352999953087,0.1,false,banana,bird,occlusion,high,mask,partial viewing,many small,Stimulus\all_stim\occlusion\partialviewing\manysmall\high\manysmall_partialViewing_high_banana7.png,mask_img/000000043024.png,experiment,w,p,1258.139524099999
5,24,Female,Right,295,Block 3,0.9369284000131302,0.1,true,building,building,occlusion,low,mask,partial viewing,few large,Stimulus\all_stim\occlusion\partialviewing\fewlarge\low\fewlarge_partialViewing_low_building2.png,mask_img/000000024702.png,experiment,r,r,1260.0523340000072
5,24,Female,Right,296,Block 3,0.9606625000014901,0.05,true,cat,cat,occlusion,control,mask,partial viewing,few large,Stimulus\all_stim\occlusion\partialviewing\fewlarge\control\fewlarge_partialViewing_control_cat7.png,mask_img/000000007325.png,experiment,i,i,1261.699794
5,24,Female,Right,297,Block 3,0.985940099999425,0.025,true,firehydrant,firehydrant,occlusion,control,mask,partial viewing,many small,Stimulus\all_stim\occlusion\partialviewing\manysmall\control\manysmall_partialViewing_control_firehydrant3.png,mask_img/000000039113.png,experiment,q,q,1263.6918067000079
5,24,Female,Right,298,Block 3,0.8803763000032632,0.05,true,tree,tree,occlusion,low,mask,partial viewing,many small,Stimulus\all_stim\occlusion\partialviewing\manysmall\low\manysmall_partialViewing_low_tree9.png,mask_img/000000063867.png,experiment,e,e,1265.3166730000084
5,24,Female,Right,299,Block 3,1.0302097999956459,0.05,false,person,building,occlusion,high,mask,partial viewing,many small,Stimulus\all_stim\occlusion\partialviewing\manysmall\high\manysmall_partialViewing_high_person10.png,mask_img/000000051453.png,experiment,r,u,1267.155468099998
5,24,Female,Right,300,Block 3,0.7460894000105327,0.025,true,bird,bird,occlusion,control,mask,partial viewing,many small,Stimulus\all_stim\occlusion\partialviewing\manysmall\control\manysmall_partialViewing_control_bird3.png,mask_img/000000034570.png,experiment,w,w,1268.796043800001
5,24,Female,Right,301,Block 3,0.8271714000002248,0.1,true,person,person,occlusion,control,mask,partial viewing,many small,Stimulus\all_stim\occlusion\partialviewing\manysmall\control\manysmall_partialViewing_control_person9.png,mask_img/000000040771.png,experiment,u,u,1270.3964880999993
5,24,Female,Right,302,Block 3,0.6877317999897059,0.05,true,banana,banana,occlusion,control,mask,partial viewing,few large,Stimulus\all_stim\occlusion\partialviewing\fewlarge\control\fewlarge_partialViewing_control_banana2.png,mask_img/000000000312.png,experiment,p,p,1272.0119040999998
5,24,Female,Right,303,Block 3,1.177199699988705,0.1,true,firehydrant,firehydrant,occlusion,low,mask,partial viewing,few large,Stimulus\all_stim\occlusion\partialviewing\fewlarge\low\fewlarge_partialViewing_low_firehydrant4.png,mask_img/000000028671.png,experiment,q,q,1274.1487613000063
5,24,Female,Right,304,Block 3,0.8617074000067078,0.05,true,building,building,occlusion,control,mask,partial viewing,few large,Stimulus\all_stim\occlusion\partialviewing\fewlarge\control\fewlarge_partialViewing_control_building10.png,mask_img/000000003225.png,experiment,r,r,1275.740268900001
5,24,Female,Right,305,Block 3,0.7915310000098543,0.025,true,bird,bird,occlusion,control,mask,partial viewing,many small,Stimulus\all_stim\occlusion\partialviewing\manysmall\control\manysmall_partialViewing_control_bird10.png,mask_img/000000034304.png,experiment,w,w,1277.4683173999947
5,24,Female,Right,306,Block 3,0.8869357999938074,0.1,true,building,building,occlusion,low,mask,partial viewing,few large,Stimulus\all_stim\occlusion\partialviewing\fewlarge\low\fewlarge_partialViewing_low_building4.png,mask_img/000000024912.png,experiment,r,r,1279.1083016000048
5,24,Female,Right,307,Block 3,0.8093042999971658,0.05,true,tree,tree,occlusion,high,mask,partial viewing,few large,Stimulus\all_stim\occlusion\partialviewing\fewlarge\high\fewlarge_partialViewing_high_tree9.png,mask_img/000000022440.png,experiment,e,e,1280.9083083000005
5,24,Female,Right,308,Block 3,0.8680978000047617,0.025,true,cat,cat,occlusion,low,mask,partial viewing,many small,Stimulus\all_stim\occlusion\partialviewing\manysmall\low\manysmall_partialViewing_low_cat5.png,mask_img/000000059660.png,experiment,i,i,1282.8441819
5,24,Female,Right,309,Block 3,2.256062700005714,0.025,false,bus,banana,occlusion,low,mask,partial viewing,few large,Stimulus\all_stim\occlusion\partialviewing\fewlarge\low\fewlarge_partialViewing_low_bus9.png,mask_img/000000027005.png,experiment,p,o,1285.749059099995
5,24,Female,Right,310,Block 3,0.904685800007428,0.1,true,cat,cat,occlusion,low,mask,partial viewing,few large,Stimulus\all_stim\occlusion\partialviewing\fewlarge\low\fewlarge_partialViewing_low_cat7.png,mask_img/000000027890.png,experiment,i,i,1287.772023700003
5,24,Female,Right,311,Block 3,0.7508030000026338,0.1,true,person,person,occlusion,high,mask,partial viewing,few large,Stimulus\all_stim\occlusion\partialviewing\fewlarge\high\fewlarge_partialViewing_high_person2.png,mask_img/000000019932.png,experiment,u,u,1289.6357224999956
5,24,Female,Right,312,Block 3,0.6899945000041043,0.05,true,building,building,occlusion,low,mask,partial viewing,many small,Stimulus\all_stim\occlusion\partialviewing\manysmall\low\manysmall_partialViewing_low_building3.png,mask_img/000000057646.png,experiment,r,r,1291.1720448999986
5,24,Female,Right,313,Block 3,1.17197200001101,0.1,true,cat,cat,occlusion,high,mask,partial viewing,many small,Stimulus\all_stim\occlusion\partialviewing\manysmall\high\manysmall_partialViewing_high_cat10.png,mask_img/000000048929.png,experiment,i,i,1293.1804295000038
5,24,Female,Right,314,Block 3,0.7017485999967903,0.025,true,firehydrant,firehydrant,occlusion,low,mask,partial viewing,few large,Stimulus\all_stim\occlusion\partialviewing\fewlarge\low\fewlarge_partialViewing_low_firehydrant6.png,mask_img/000000028842.png,experiment,q,q,1294.6600556000049
5,24,Female,Right,315,Block 3,0.871674099995289,0.1,true,tree,tree,occlusion,control,mask,partial viewing,many small,Stimulus\all_stim\occlusion\partialviewing\manysmall\control\manysmall_partialViewing_control_tree8.png,mask_img/000000041577.png,experiment,e,e,1296.5004015000013
5,24,Female,Right,316,Block 3,0.7094156999955885,0.025,true,building,building,occlusion,control,mask,partial viewing,few large,Stimulus\all_stim\occlusion\partialviewing\fewlarge\control\fewlarge_partialViewing_control_building8.png,mask_img/000000005105.png,experiment,r,r,1297.9960055999982
5,24,Female,Right,317,Block 3,0.7704598999989685,0.025,false,tree,bird,occlusion,control,mask,partial viewing,few large,Stimulus\all_stim\occlusion\partialviewing\fewlarge\control\fewlarge_partialViewing_control_tree7.png,mask_img/000000011504.png,experiment,w,e,1299.523929300005
5,24,Female,Right,318,Block 3,2.6282379000040237,0.05,false,bus,building,occlusion,high,mask,partial viewing,few large,Stimulus\all_stim\occlusion\partialviewing\fewlarge\high\fewlarge_partialViewing_high_bus7.png,mask_img/000000016238.png,experiment,r,o,1303.0842344999983
5,24,Female,Right,319,Block 3,1.4909127999999328,0.1,true,cat,cat,occlusion,high,mask,partial viewing,many small,Stimulus\all_stim\occlusion\partialviewing\manysmall\high\manysmall_partialViewing_high_cat8.png,mask_img/000000049763.png,experiment,i,i,1305.220000100002
5,24,Female,Right,320,Block 3,0.9547104000084801,0.025,true,person,person,occlusion,control,mask,partial viewing,many small,Stimulus\all_stim\occlusion\partialviewing\manysmall\control\manysmall_partialViewing_control_person2.png,mask_img/000000039971.png,experiment,u,u,1307.020173099998
5,24,Female,Right,321,Block 3,0.7064663000055589,0.025,true,building,building,occlusion,high,mask,partial viewing,few large,Stimulus\all_stim\occlusion\partialviewing\fewlarge\high\fewlarge_partialViewing_high_building7.png,mask_img/000000015155.png,experiment,r,r,1308.8039570999972
5,24,Female,Right,322,Block 3,1.0560327999992296,0.025,true,building,building,occlusion,low,mask,partial viewing,few large,Stimulus\all_stim\occlusion\partialviewing\fewlarge\low\fewlarge_partialViewing_low_building7.png,mask_img/000000025192.png,experiment,r,r,1310.7799999999988
5,24,Female,Right,323,Block 3,0.9265727000019979,0.05,true,bus,bus,occlusion,low,mask,partial viewing,few large,Stimulus\all_stim\occlusion\partialviewing\fewlarge\low\fewlarge_partialViewing_low_bus10.png,mask_img/000000025855.png,experiment,o,o,1312.6356769999984
