pt_num,Age,Gender,Handedness,trial_nbr,block_number,rt,soa,acc,category,choiced_category,manipulation,difficulty,mask,type_occl,size_occl,filename,mask_filename,task,pressed_key,correct_key,Experiment Duration
1,22,Male,Right,1,Training,4.9471913000015775,0.1,false,tree,person,occlusion,low,mask,partial viewing,many small,Training_Stimulus\manysmall_partialViewing_low_tree25.png,mask_img/000000007325.png,training,q,i,28.087082099998952
1,22,Male,Right,2,Training,3.6476003999996465,0.1,false,bird,cat,occlusion,control,mask,partial viewing,few large,Training_Stimulus\fewlarge_partialViewing_control_bird394.png,mask_img/000000000109.png,training,u,e,32.874528599997575
1,22,Male,Right,3,Training,3.3891965999937383,0.025,false,bird,firehydrant,occlusion,control,mask,partial viewing,many small,Training_Stimulus\manysmall_partialViewing_control_bird394.png,mask_img/000000004642.png,training,o,e,37.593946699998924
1,22,Male,Right,4,Training,1.6407288999980665,0.05,true,firehydrant,firehydrant,occlusion,high,mask,partial viewing,few large,Training_Stimulus\fewlarge_partialViewing_high_firehydrant90.png,mask_img/000000001810.png,training,o,o,40.53498969999782
1,22,Male,Right,5,Training,1.485867600000347,0.1,true,bus,bus,occlusion,low,mask,partial viewing,many small,Training_Stimulus\manysmall_partialViewing_low_bus630.png,mask_img/000000006709.png,training,r,r,43.13506749999942
1,22,Male,Right,6,Training,1.5494907000029343,0.05,true,building,building,occlusion,control,mask,partial viewing,few large,Training_Stimulus\fewlarge_partialViewing_control_building48.png,mask_img/000000000312.png,training,p,p,46.23674230000324
1,22,Male,Right,7,Training,1.9245166999971843,0.025,false,bird,tree,occlusion,high,mask,partial viewing,many small,Training_Stimulus\manysmall_partialViewing_high_bird1073.png,mask_img/000000005418.png,training,i,e,49.330858599998464
1,22,Male,Right,8,Training,2.5791280000048573,0.025,true,bird,bird,occlusion,low,mask,partial viewing,few large,Training_Stimulus\fewlarge_partialViewing_low_bird1073.png,mask_img/000000002774.png,training,e,e,53.22148269999889
1,22,Male,Right,9,Training,2.3290427000029013,0.025,false,firehydrant,tree,occlusion,high,mask,partial viewing,many small,Training_Stimulus\manysmall_partialViewing_high_firehydrant90.png,mask_img/000000006146.png,training,i,o,57.06722810000065
1,22,Male,Right,10,Training,2.3903732000035234,0.05,false,tree,banana,occlusion,high,mask,partial viewing,few large,Training_Stimulus\fewlarge_partialViewing_high_tree25.png,mask_img/000000002197.png,training,w,i,60.57860220000293
1,22,Male,Right,11,Training,5.410534900001949,0.025,false,tree,bus,occlusion,high,mask,partial viewing,many small,Training_Stimulus\manysmall_partialViewing_high_tree25.png,mask_img/000000006263.png,training,r,i,67.26786529999663
1,22,Male,Right,12,Training,3.833313700000872,0.025,true,banana,banana,occlusion,low,mask,partial viewing,many small,Training_Stimulus\manysmall_partialViewing_low_banana589.png,mask_img/000000006437.png,training,w,w,72.64015069999732
1,22,Male,Right,13,Training,4.8474404999942635,0.025,false,banana,firehydrant,occlusion,high,mask,partial viewing,many small,Training_Stimulus\manysmall_partialViewing_high_banana589.png,mask_img/000000005359.png,training,o,w,78.743501500001
1,22,Male,Right,14,Training,2.224368900002446,0.1,true,bus,bus,occlusion,high,mask,partial viewing,many small,Training_Stimulus\manysmall_partialViewing_high_bus630.png,mask_img/000000005615.png,training,r,r,82.45656179999787
1,22,Male,Right,15,Training,1.12152999999671,0.1,true,bus,bus,occlusion,low,mask,partial viewing,few large,Training_Stimulus\fewlarge_partialViewing_low_bus630.png,mask_img/000000002892.png,training,r,r,84.81642090000241
1,22,Male,Right,16,Training,2.3659776999993483,0.025,false,cat,tree,occlusion,control,mask,partial viewing,few large,Training_Stimulus\fewlarge_partialViewing_control_cat511.png,mask_img/000000000438.png,training,i,u,88.57886080000026
1,22,Male,Right,17,Training,2.0755816000018967,0.025,false,bus,tree,occlusion,control,mask,partial viewing,many small,Training_Stimulus\manysmall_partialViewing_control_bus630.png,mask_img/000000004936.png,training,i,r,91.7857823000013
1,22,Male,Right,18,Training,1.0478101999979117,0.025,true,person,person,occlusion,control,mask,partial viewing,few large,Training_Stimulus\fewlarge_partialViewing_control_person475.png,mask_img/000000000595.png,training,q,q,93.94466990000365
1,22,Male,Right,19,Training,2.832965699999477,0.1,true,cat,cat,occlusion,low,mask,partial viewing,few large,Training_Stimulus\fewlarge_partialViewing_low_cat593.png,mask_img/000000003084.png,training,u,u,97.87723030000052
1,22,Male,Right,20,Training,2.3290333000040846,0.1,true,bird,bird,occlusion,control,mask,partial viewing,many small,Training_Stimulus\manysmall_partialViewing_control_bird394.png,mask_img/000000004642.png,training,e,e,101.63209929999721
1,22,Male,Right,21,Training,1.5713075999956345,0.1,true,bus,bus,occlusion,control,mask,partial viewing,many small,Training_Stimulus\manysmall_partialViewing_control_bus630.png,mask_img/000000004936.png,training,r,r,104.7400684000022
1,22,Male,Right,22,Training,2.7385009999998147,0.025,false,bird,tree,occlusion,low,mask,partial viewing,many small,Training_Stimulus\manysmall_partialViewing_low_bird394.png,mask_img/000000006481.png,training,i,e,108.96028140000271
1,22,Male,Right,23,Training,1.6148071999996318,0.025,true,firehydrant,firehydrant,occlusion,control,mask,partial viewing,many small,Training_Stimulus\manysmall_partialViewing_control_firehydrant154.png,mask_img/000000005131.png,training,o,o,111.72603369999706
1,22,Male,Right,24,Training,2.08873709999898,0.1,false,cat,tree,occlusion,high,mask,partial viewing,many small,Training_Stimulus\manysmall_partialViewing_high_cat511.png,mask_img/000000005862.png,training,i,u,114.93035370000143
1,22,Male,Right,25,Training,1.4140525000038906,0.025,true,banana,banana,occlusion,control,mask,partial viewing,many small,Training_Stimulus\manysmall_partialViewing_control_banana1022.png,mask_img/000000004239.png,training,w,w,117.66690340000059
1,22,Male,Right,26,Training,2.881890700002259,0.05,false,banana,cat,occlusion,low,mask,partial viewing,many small,Training_Stimulus\manysmall_partialViewing_low_banana589.png,mask_img/000000006437.png,training,u,w,121.87428630000068
1,22,Male,Right,27,Training,1.9350379999959841,0.1,true,firehydrant,firehydrant,occlusion,low,mask,partial viewing,few large,Training_Stimulus\fewlarge_partialViewing_low_firehydrant205.png,mask_img/000000003225.png,training,o,o,125.18758499999967
1,22,Male,Right,28,Training,2.3401513999997405,0.05,false,cat,building,occlusion,high,mask,partial viewing,few large,Training_Stimulus\fewlarge_partialViewing_high_cat511.png,mask_img/000000001647.png,training,p,u,129.0667070999989
1,22,Male,Right,29,Training,0.9542482000033488,0.1,true,person,person,occlusion,control,mask,partial viewing,many small,Training_Stimulus\manysmall_partialViewing_control_person189.png,mask_img/000000005142.png,training,q,q,131.46060710000165
1,22,Male,Right,30,Training,1.3259188000010909,0.05,true,bus,bus,occlusion,control,mask,partial viewing,many small,Training_Stimulus\manysmall_partialViewing_control_bus630.png,mask_img/000000004936.png,training,r,r,134.00754620000225
1,22,Male,Right,31,Training,3.494098099996336,0.025,false,cat,firehydrant,occlusion,high,mask,partial viewing,few large,Training_Stimulus\fewlarge_partialViewing_high_cat511.png,mask_img/000000001647.png,training,o,u,138.62443090000306
1,22,Male,Right,32,Training,1.2428030999944895,0.025,true,building,building,occlusion,control,mask,partial viewing,few large,Training_Stimulus\fewlarge_partialViewing_control_building48.png,mask_img/000000000312.png,training,p,p,141.33398509999824
1,22,Male,Right,33,Training,1.1389855000015814,0.05,true,bus,bus,occlusion,control,mask,partial viewing,few large,Training_Stimulus\fewlarge_partialViewing_control_bus630.png,mask_img/000000000394.png,training,r,r,143.63251440000022
1,22,Male,Right,34,Training,3.0429068000012194,0.1,false,tree,cat,occlusion,high,mask,partial viewing,few large,Training_Stimulus\fewlarge_partialViewing_high_tree25.png,mask_img/000000002197.png,training,u,i,148.1794155000025
1,22,Male,Right,35,Training,1.118226800004777,0.1,true,person,person,occlusion,low,mask,partial viewing,many small,Training_Stimulus\manysmall_partialViewing_low_person587.png,mask_img/000000007179.png,training,q,q,150.6481550000026
1,22,Male,Right,36,Training,1.695692399996915,0.1,false,bird,firehydrant,occlusion,low,mask,partial viewing,many small,Training_Stimulus\manysmall_partialViewing_low_bird394.png,mask_img/000000006481.png,training,o,e,153.63620459999947
1,22,Male,Right,37,Training,1.1048606999975163,0.025,true,banana,banana,occlusion,low,mask,partial viewing,few large,Training_Stimulus\fewlarge_partialViewing_low_banana1022.png,mask_img/000000002337.png,training,w,w,156.18760979999934
1,22,Male,Right,38,Training,1.3249150999981794,0.025,true,tree,tree,occlusion,control,mask,partial viewing,few large,Training_Stimulus\fewlarge_partialViewing_control_tree17.png,mask_img/000000000626.png,training,i,i,159.0182397000026
1,22,Male,Right,39,Training,0.9835566000037943,0.1,true,building,building,occlusion,control,mask,partial viewing,few large,Training_Stimulus\fewlarge_partialViewing_control_building48.png,mask_img/000000000312.png,training,p,p,161.27662910000072
1,22,Male,Right,40,Training,0.9548271999956341,0.05,true,building,building,occlusion,low,mask,partial viewing,few large,Training_Stimulus\fewlarge_partialViewing_low_building71.png,mask_img/000000002822.png,training,p,p,163.76255469999887
1,22,Male,Right,41,Training,3.4027203999939957,0.05,false,bird,cat,occlusion,high,mask,partial viewing,many small,Training_Stimulus\manysmall_partialViewing_high_bird1073.png,mask_img/000000005418.png,training,u,e,168.47326810000231
1,22,Male,Right,42,Training,1.6742190000004484,0.05,true,bird,bird,occlusion,control,mask,partial viewing,few large,Training_Stimulus\fewlarge_partialViewing_control_bird394.png,mask_img/000000000109.png,training,e,e,171.52208870000322
1,22,Male,Right,43,Training,3.929165899993677,0.1,false,cat,bus,occlusion,high,mask,partial viewing,few large,Training_Stimulus\fewlarge_partialViewing_high_cat511.png,mask_img/000000001647.png,training,r,u,176.53781680000247
1,22,Male,Right,44,Training,0.7964474999971571,0.05,true,person,person,occlusion,control,mask,partial viewing,few large,Training_Stimulus\fewlarge_partialViewing_control_person475.png,mask_img/000000000595.png,training,q,q,178.72547640000266
1,22,Male,Right,45,Training,1.262733900002786,0.1,true,building,building,occlusion,low,mask,partial viewing,few large,Training_Stimulus\fewlarge_partialViewing_low_building71.png,mask_img/000000002822.png,training,p,p,181.0845582999973
1,22,Male,Right,46,Training,1.137741599995934,0.05,true,bus,bus,occlusion,low,mask,partial viewing,few large,Training_Stimulus\fewlarge_partialViewing_low_bus630.png,mask_img/000000002892.png,training,r,r,183.36644179999712
1,22,Male,Right,47,Training,1.8602314999952796,0.025,false,tree,firehydrant,occlusion,control,mask,partial viewing,many small,Training_Stimulus\manysmall_partialViewing_control_tree25.png,mask_img/000000005282.png,training,o,i,186.482608899998
1,22,Male,Right,48,Training,1.8925694999998086,0.1,false,banana,building,occlusion,control,mask,partial viewing,many small,Training_Stimulus\manysmall_partialViewing_control_banana1022.png,mask_img/000000004239.png,training,p,w,189.57724069999676
1,22,Male,Right,49,Training,1.5553031000017654,0.05,false,person,bird,occlusion,low,mask,partial viewing,many small,Training_Stimulus\manysmall_partialViewing_low_person587.png,mask_img/000000007179.png,training,e,q,192.5903849000024
1,22,Male,Right,50,Training,2.19755879999866,0.1,true,bird,bird,occlusion,high,mask,partial viewing,many small,Training_Stimulus\manysmall_partialViewing_high_bird1073.png,mask_img/000000005418.png,training,e,e,196.0283580999967
1,22,Male,Right,51,Training,0.9552317999987281,0.025,true,bus,bus,occlusion,high,mask,partial viewing,many small,Training_Stimulus\manysmall_partialViewing_high_bus630.png,mask_img/000000005615.png,training,r,r,198.17092050000065
1,22,Male,Right,52,Training,0.9887673999983235,0.025,true,building,building,occlusion,control,mask,partial viewing,many small,Training_Stimulus\manysmall_partialViewing_control_building48.png,mask_img/000000004739.png,training,p,p,200.46798860000126
1,22,Male,Right,53,Training,0.9901145000039833,0.1,true,banana,banana,occlusion,low,mask,partial viewing,few large,Training_Stimulus\fewlarge_partialViewing_low_banana1022.png,mask_img/000000002337.png,training,w,w,202.68651320000208
1,22,Male,Right,54,Training,2.7714099000004353,0.05,false,tree,cat,occlusion,low,mask,partial viewing,many small,Training_Stimulus\manysmall_partialViewing_low_tree25.png,mask_img/000000007325.png,training,u,i,206.7576732000016
1,22,Male,Right,55,Training,1.5670488000032492,0.1,false,banana,tree,occlusion,high,mask,partial viewing,many small,Training_Stimulus\manysmall_partialViewing_high_banana589.png,mask_img/000000005359.png,training,i,w,209.39831119999872
1,22,Male,Right,56,Training,0.9763485000003129,0.05,true,person,person,occlusion,low,mask,partial viewing,few large,Training_Stimulus\fewlarge_partialViewing_low_person587.png,mask_img/000000003483.png,training,q,q,211.43575219999911
1,22,Male,Right,57,Training,1.8908513000060339,0.05,true,firehydrant,firehydrant,occlusion,low,mask,partial viewing,many small,Training_Stimulus\manysmall_partialViewing_low_firehydrant205.png,mask_img/000000006870.png,training,o,o,214.39069249999739
1,22,Male,Right,58,Training,1.5337800000052084,0.1,true,bus,bus,occlusion,high,mask,partial viewing,few large,Training_Stimulus\fewlarge_partialViewing_high_bus929.png,mask_img/000000001053.png,training,r,r,217.14162729999953
1,22,Male,Right,59,Training,1.0659738999966066,0.025,true,bus,bus,occlusion,low,mask,partial viewing,few large,Training_Stimulus\fewlarge_partialViewing_low_bus630.png,mask_img/000000002892.png,training,r,r,219.68515789999947
1,22,Male,Right,60,Training,1.9963636999964365,0.025,false,tree,banana,occlusion,low,mask,partial viewing,many small,Training_Stimulus\manysmall_partialViewing_low_tree25.png,mask_img/000000007325.png,training,w,i,222.89486159999797
1,22,Male,Right,61,Training,1.115688499994576,0.025,true,bus,bus,occlusion,high,mask,partial viewing,few large,Training_Stimulus\fewlarge_partialViewing_high_bus929.png,mask_img/000000001053.png,training,r,r,225.1269156999988
1,22,Male,Right,62,Training,1.9446586999983992,0.05,true,cat,cat,occlusion,control,mask,partial viewing,few large,Training_Stimulus\fewlarge_partialViewing_control_cat511.png,mask_img/000000000438.png,training,u,u,228.59897539999656
1,22,Male,Right,63,Training,1.258259000001999,0.1,true,firehydrant,firehydrant,occlusion,control,mask,partial viewing,few large,Training_Stimulus\fewlarge_partialViewing_control_firehydrant154.png,mask_img/000000000459.png,training,o,o,231.1149282999977
1,22,Male,Right,64,Training,2.1134334999951534,0.05,false,cat,building,occlusion,high,mask,partial viewing,many small,Training_Stimulus\manysmall_partialViewing_high_cat511.png,mask_img/000000005862.png,training,p,u,234.66269099999772
1,22,Male,Right,65,Training,1.7499547000043094,0.05,true,bird,bird,occlusion,high,mask,partial viewing,few large,Training_Stimulus\fewlarge_partialViewing_high_bird394.png,mask_img/000000000731.png,training,e,e,237.6215521999984
1,22,Male,Right,66,Training,2.4810643999953754,0.1,false,tree,banana,occlusion,high,mask,partial viewing,many small,Training_Stimulus\manysmall_partialViewing_high_tree25.png,mask_img/000000006263.png,training,w,i,241.3936476000017
1,22,Male,Right,67,Training,2.172229600000719,0.05,false,person,cat,occlusion,high,mask,partial viewing,few large,Training_Stimulus\fewlarge_partialViewing_high_person189.png,mask_img/000000001997.png,training,u,q,244.8001793000003
1,22,Male,Right,68,Training,0.9332724000050803,0.05,true,banana,banana,occlusion,low,mask,partial viewing,few large,Training_Stimulus\fewlarge_partialViewing_low_banana1022.png,mask_img/000000002337.png,training,w,w,247.06789939999726
1,22,Male,Right,69,Training,1.0844893000030424,0.05,true,banana,banana,occlusion,control,mask,partial viewing,few large,Training_Stimulus\fewlarge_partialViewing_control_banana589.png,mask_img/000000000042.png,training,w,w,249.4272426000025
1,22,Male,Right,70,Training,1.1349544000040623,0.025,true,firehydrant,firehydrant,occlusion,high,mask,partial viewing,few large,Training_Stimulus\fewlarge_partialViewing_high_firehydrant90.png,mask_img/000000001810.png,training,o,o,251.63139570000203
1,22,Male,Right,71,Training,0.9251736999940476,0.05,true,building,building,occlusion,control,mask,partial viewing,many small,Training_Stimulus\manysmall_partialViewing_control_building48.png,mask_img/000000004739.png,training,p,p,254.06734870000219
1,22,Male,Right,72,Training,3.0440775000024587,0.025,false,person,bird,occlusion,high,mask,partial viewing,many small,Training_Stimulus\manysmall_partialViewing_high_person475.png,mask_img/000000006153.png,training,e,q,258.5241257000016
1,22,Male,Right,73,Training,1.3394933999952627,0.025,true,building,building,occlusion,high,mask,partial viewing,few large,Training_Stimulus\fewlarge_partialViewing_high_building71.png,mask_img/000000000873.png,training,p,p,260.96481440000207
1,22,Male,Right,74,Training,1.3239255000007688,0.025,true,person,person,occlusion,low,mask,partial viewing,many small,Training_Stimulus\manysmall_partialViewing_low_person587.png,mask_img/000000007179.png,training,q,q,263.37096790000214
1,22,Male,Right,75,Training,1.0427685999966343,0.05,true,firehydrant,firehydrant,occlusion,control,mask,partial viewing,many small,Training_Stimulus\manysmall_partialViewing_control_firehydrant154.png,mask_img/000000005131.png,training,o,o,265.7585623999985
1,22,Male,Right,76,Training,2.108506899996428,0.1,false,firehydrant,tree,occlusion,high,mask,partial viewing,many small,Training_Stimulus\manysmall_partialViewing_high_firehydrant90.png,mask_img/000000006146.png,training,i,o,269.38819550000335
1,22,Male,Right,77,Training,0.9399723000024096,0.1,true,building,building,occlusion,control,mask,partial viewing,many small,Training_Stimulus\manysmall_partialViewing_control_building48.png,mask_img/000000004739.png,training,p,p,271.8100450999991
1,22,Male,Right,78,Training,0.9592561000026762,0.05,true,firehydrant,firehydrant,occlusion,low,mask,partial viewing,few large,Training_Stimulus\fewlarge_partialViewing_low_firehydrant205.png,mask_img/000000003225.png,training,o,o,273.84129060000123
1,22,Male,Right,79,Training,1.0570504999996047,0.05,true,building,building,occlusion,low,mask,partial viewing,many small,Training_Stimulus\manysmall_partialViewing_low_building24.png,mask_img/000000006489.png,training,p,p,276.1384829000017
1,22,Male,Right,80,Training,1.0601467000014964,0.025,true,bus,bus,occlusion,low,mask,partial viewing,many small,Training_Stimulus\manysmall_partialViewing_low_bus630.png,mask_img/000000006709.png,training,r,r,278.54535939999914
1,22,Male,Right,81,Training,0.9280696000059834,0.1,true,bus,bus,occlusion,control,mask,partial viewing,few large,Training_Stimulus\fewlarge_partialViewing_control_bus630.png,mask_img/000000000394.png,training,r,r,280.5941693999994
1,22,Male,Right,82,Training,0.8107956999956514,0.05,false,bird,person,occlusion,low,mask,partial viewing,many small,Training_Stimulus\manysmall_partialViewing_low_bird394.png,mask_img/000000006481.png,training,q,e,282.8137704000037
1,22,Male,Right,83,Training,1.4065904000017326,0.05,false,person,banana,occlusion,high,mask,partial viewing,many small,Training_Stimulus\manysmall_partialViewing_high_person475.png,mask_img/000000006153.png,training,w,q,285.31520949999685
1,22,Male,Right,84,Training,0.9439383999997517,0.05,true,firehydrant,firehydrant,occlusion,control,mask,partial viewing,few large,Training_Stimulus\fewlarge_partialViewing_control_firehydrant154.png,mask_img/000000000459.png,training,o,o,287.5211761000028
1,22,Male,Right,85,Training,1.1430276000028243,0.05,true,person,person,occlusion,control,mask,partial viewing,many small,Training_Stimulus\manysmall_partialViewing_control_person189.png,mask_img/000000005142.png,training,q,q,289.9715912000029
1,22,Male,Right,86,Training,1.1597723000013502,0.05,true,bus,bus,occlusion,high,mask,partial viewing,few large,Training_Stimulus\fewlarge_partialViewing_high_bus929.png,mask_img/000000001053.png,training,r,r,292.53471819999686
1,22,Male,Right,87,Training,0.917990900001314,0.025,true,building,building,occlusion,low,mask,partial viewing,few large,Training_Stimulus\fewlarge_partialViewing_low_building71.png,mask_img/000000002822.png,training,p,p,294.7215110000034
1,22,Male,Right,88,Training,1.2651699999987613,0.05,false,banana,bird,occlusion,high,mask,partial viewing,few large,Training_Stimulus\fewlarge_partialViewing_high_banana1022.png,mask_img/000000000690.png,training,e,w,297.0837500999987
1,22,Male,Right,89,Training,1.7636234999954468,0.05,false,banana,firehydrant,occlusion,high,mask,partial viewing,many small,Training_Stimulus\manysmall_partialViewing_high_banana589.png,mask_img/000000005359.png,training,o,w,300.0488903000005
1,22,Male,Right,90,Training,2.45829429999867,0.1,false,person,bird,occlusion,high,mask,partial viewing,few large,Training_Stimulus\fewlarge_partialViewing_high_person189.png,mask_img/000000001997.png,training,e,q,303.72371649999695
1,22,Male,Right,91,Training,2.049580999999307,0.1,false,person,cat,occlusion,high,mask,partial viewing,many small,Training_Stimulus\manysmall_partialViewing_high_person475.png,mask_img/000000006153.png,training,u,q,307.06970990000264
1,22,Male,Right,92,Training,1.3386492999998154,0.025,false,banana,bird,occlusion,high,mask,partial viewing,few large,Training_Stimulus\fewlarge_partialViewing_high_banana1022.png,mask_img/000000000690.png,training,e,w,309.87590289999935
1,22,Male,Right,93,Training,1.1869951000044239,0.1,false,cat,bird,occlusion,low,mask,partial viewing,many small,Training_Stimulus\manysmall_partialViewing_low_cat593.png,mask_img/000000006842.png,training,e,u,312.5933414000028
1,22,Male,Right,94,Training,1.1595729000036954,0.05,true,building,building,occlusion,high,mask,partial viewing,many small,Training_Stimulus\manysmall_partialViewing_high_building48.png,mask_img/000000005574.png,training,p,p,315.0347122000021
1,22,Male,Right,95,Training,1.0385803999961354,0.1,true,firehydrant,firehydrant,occlusion,high,mask,partial viewing,few large,Training_Stimulus\fewlarge_partialViewing_high_firehydrant90.png,mask_img/000000001810.png,training,o,o,317.5381610999975
1,22,Male,Right,96,Training,1.4314040999961435,0.025,true,tree,tree,occlusion,high,mask,partial viewing,few large,Training_Stimulus\fewlarge_partialViewing_high_tree25.png,mask_img/000000002197.png,training,i,i,320.34860379999736
1,22,Male,Right,97,Training,2.7072453999935533,0.05,false,cat,banana,occlusion,control,mask,partial viewing,many small,Training_Stimulus\manysmall_partialViewing_control_cat511.png,mask_img/000000005105.png,training,w,u,324.4232484000022
1,22,Male,Right,98,Training,0.8725424000003841,0.025,true,firehydrant,firehydrant,occlusion,low,mask,partial viewing,few large,Training_Stimulus\fewlarge_partialViewing_low_firehydrant205.png,mask_img/000000003225.png,training,o,o,326.5186620000022
1,22,Male,Right,99,Training,1.0957051000004867,0.1,true,bird,bird,occlusion,high,mask,partial viewing,few large,Training_Stimulus\fewlarge_partialViewing_high_bird394.png,mask_img/000000000731.png,training,e,e,328.9700548999972
1,22,Male,Right,100,Training,1.829818799997156,0.025,false,building,bus,occlusion,high,mask,partial viewing,many small,Training_Stimulus\manysmall_partialViewing_high_building48.png,mask_img/000000005574.png,training,r,p,331.87877090000256
1,22,Male,Right,101,Training,1.2655226999995648,0.1,true,tree,tree,occlusion,low,mask,partial viewing,few large,Training_Stimulus\fewlarge_partialViewing_low_tree17.png,mask_img/000000003694.png,training,i,i,334.3019889999996
1,22,Male,Right,102,Training,1.162223899998935,0.05,true,banana,banana,occlusion,control,mask,partial viewing,many small,Training_Stimulus\manysmall_partialViewing_control_banana1022.png,mask_img/000000004239.png,training,w,w,336.9831453000006
1,22,Male,Right,103,Training,1.080727200002002,0.1,false,tree,banana,occlusion,control,mask,partial viewing,many small,Training_Stimulus\manysmall_partialViewing_control_tree25.png,mask_img/000000005282.png,training,w,i,339.53477420000127
1,22,Male,Right,104,Training,0.9329278000004706,0.1,true,firehydrant,firehydrant,occlusion,control,mask,partial viewing,many small,Training_Stimulus\manysmall_partialViewing_control_firehydrant154.png,mask_img/000000005131.png,training,o,o,341.8949993999995
1,22,Male,Right,105,Training,1.6873592999982066,0.05,true,cat,cat,occlusion,low,mask,partial viewing,few large,Training_Stimulus\fewlarge_partialViewing_low_cat593.png,mask_img/000000003084.png,training,u,u,344.8020964000025
1,22,Male,Right,106,Training,1.3658376000021235,0.1,true,tree,tree,occlusion,control,mask,partial viewing,few large,Training_Stimulus\fewlarge_partialViewing_control_tree17.png,mask_img/000000000626.png,training,i,i,347.6801705999969
1,22,Male,Right,107,Training,1.545675699999265,0.05,true,bird,bird,occlusion,control,mask,partial viewing,many small,Training_Stimulus\manysmall_partialViewing_control_bird394.png,mask_img/000000004642.png,training,e,e,350.70038280000153
1,22,Male,Right,108,Training,0.9564286000022548,0.1,true,building,building,occlusion,high,mask,partial viewing,few large,Training_Stimulus\fewlarge_partialViewing_high_building71.png,mask_img/000000000873.png,training,p,p,352.85374530000263
1,22,Male,Right,109,Training,0.8483045999964816,0.025,true,banana,banana,occlusion,control,mask,partial viewing,few large,Training_Stimulus\fewlarge_partialViewing_control_banana589.png,mask_img/000000000042.png,training,w,w,355.02557559999696
1,22,Male,Right,110,Training,1.15579340000113,0.1,true,cat,cat,occlusion,control,mask,partial viewing,many small,Training_Stimulus\manysmall_partialViewing_control_cat511.png,mask_img/000000005105.png,training,u,u,357.60796680000203
1,22,Male,Right,111,Training,0.7483696999988751,0.1,true,building,building,occlusion,low,mask,partial viewing,many small,Training_Stimulus\manysmall_partialViewing_low_building24.png,mask_img/000000006489.png,training,p,p,359.59220490000007
1,22,Male,Right,1,Block 1,1.0092437999992399,0.025,true,cat,cat,occlusion,control,mask,partial viewing,many small,Stimulus\all_stim\occlusion\partialviewing\manysmall\control\manysmall_partialViewing_control_cat9.png,mask_img/000000038862.png,experiment,u,u,412.52630569999747
1,22,Male,Right,2,Block 1,0.9116050000011455,0.05,true,firehydrant,firehydrant,occlusion,low,mask,partial viewing,few large,Stimulus\all_stim\occlusion\partialviewing\fewlarge\low\fewlarge_partialViewing_low_firehydrant3.png,mask_img/000000028518.png,experiment,o,o,414.29359909999766
1,22,Male,Right,3,Block 1,0.886061700002756,0.05,true,building,building,occlusion,low,mask,partial viewing,few large,Stimulus\all_stim\occlusion\partialviewing\fewlarge\low\fewlarge_partialViewing_low_building10.png,mask_img/000000024591.png,experiment,p,p,416.2060513999968
1,22,Male,Right,4,Block 1,1.2131241000024602,0.025,true,bird,bird,occlusion,control,mask,partial viewing,many small,Stimulus\all_stim\occlusion\partialviewing\manysmall\control\manysmall_partialViewing_control_bird6.png,mask_img/000000034993.png,experiment,e,e,418.38189969999803
1,22,Male,Right,5,Block 1,1.7328890999997384,0.1,false,bird,tree,occlusion,high,mask,partial viewing,many small,Stimulus\all_stim\occlusion\partialviewing\manysmall\high\manysmall_partialViewing_high_bird7.png,mask_img/000000044580.png,experiment,i,e,421.1974065999966
1,22,Male,Right,6,Block 1,1.0342952999999397,0.025,true,bus,bus,occlusion,low,mask,partial viewing,many small,Stimulus\all_stim\occlusion\partialviewing\manysmall\low\manysmall_partialViewing_low_bus1.png,mask_img/000000058232.png,experiment,r,r,423.246779699999
1,22,Male,Right,7,Block 1,0.8264248999985284,0.025,true,person,person,occlusion,low,mask,partial viewing,few large,Stimulus\all_stim\occlusion\partialviewing\fewlarge\low\fewlarge_partialViewing_low_person10.png,mask_img/000000029128.png,experiment,q,q,425.14944030000333
1,22,Male,Right,8,Block 1,0.9652435999960289,0.1,true,banana,banana,occlusion,control,mask,partial viewing,many small,Stimulus\all_stim\occlusion\partialviewing\manysmall\control\manysmall_partialViewing_control_banana6.png,mask_img/000000033756.png,experiment,w,w,426.90167030000157
1,22,Male,Right,9,Block 1,1.7078430999972625,0.1,true,firehydrant,firehydrant,occlusion,low,mask,partial viewing,many small,Stimulus\all_stim\occlusion\partialviewing\manysmall\low\manysmall_partialViewing_low_firehydrant1.png,mask_img/000000060464.png,experiment,o,o,429.5821023000026
1,22,Male,Right,10,Block 1,0.6966757999980473,0.1,true,building,building,occlusion,low,mask,partial viewing,few large,Stimulus\all_stim\occlusion\partialviewing\fewlarge\low\fewlarge_partialViewing_low_building3.png,mask_img/000000024808.png,experiment,p,p,430.981867399998
1,22,Male,Right,11,Block 1,3.3068567000009352,0.05,false,banana,cat,occlusion,high,mask,partial viewing,many small,Stimulus\all_stim\occlusion\partialviewing\manysmall\high\manysmall_partialViewing_high_banana3.png,mask_img/000000042476.png,experiment,u,w,435.27009810000163
1,22,Male,Right,12,Block 1,0.8750287000002572,0.1,false,firehydrant,person,occlusion,high,mask,partial viewing,few large,Stimulus\all_stim\occlusion\partialviewing\fewlarge\high\fewlarge_partialViewing_high_firehydrant1.png,mask_img/000000017944.png,experiment,q,o,437.230006400001
1,22,Male,Right,13,Block 1,0.869171099999221,0.05,true,building,building,occlusion,high,mask,partial viewing,many small,Stimulus\all_stim\occlusion\partialviewing\manysmall\high\manysmall_partialViewing_high_building1.png,mask_img/000000044950.png,experiment,p,p,439.0858070000031
1,22,Male,Right,14,Block 1,1.0567671000026166,0.1,true,cat,cat,occlusion,control,mask,partial viewing,many small,Stimulus\all_stim\occlusion\partialviewing\manysmall\control\manysmall_partialViewing_control_cat7.png,mask_img/000000038798.png,experiment,u,u,441.0380492999975
1,22,Male,Right,15,Block 1,0.8798636999999871,0.025,true,bus,bus,occlusion,control,mask,partial viewing,many small,Stimulus\all_stim\occlusion\partialviewing\manysmall\control\manysmall_partialViewing_control_bus10.png,mask_img/000000036482.png,experiment,r,r,442.92594310000277
1,22,Male,Right,16,Block 1,1.0611413000005996,0.05,true,cat,cat,occlusion,control,mask,partial viewing,few large,Stimulus\all_stim\occlusion\partialviewing\fewlarge\control\fewlarge_partialViewing_control_cat7.png,mask_img/000000007325.png,experiment,u,u,445.10185820000333
1,22,Male,Right,17,Block 1,1.2525416999997105,0.1,true,person,person,occlusion,high,mask,partial viewing,few large,Stimulus\all_stim\occlusion\partialviewing\fewlarge\high\fewlarge_partialViewing_high_person7.png,mask_img/000000020421.png,experiment,q,q,447.2778225000002
1,22,Male,Right,18,Block 1,1.3202500000043074,0.05,true,tree,tree,occlusion,control,mask,partial viewing,many small,Stimulus\all_stim\occlusion\partialviewing\manysmall\control\manysmall_partialViewing_control_tree5.png,mask_img/000000041174.png,experiment,i,i,449.27766549999797
1,22,Male,Right,19,Block 1,0.8760359000007156,0.025,true,building,building,occlusion,high,mask,partial viewing,few large,Stimulus\all_stim\occlusion\partialviewing\fewlarge\high\fewlarge_partialViewing_high_building6.png,mask_img/000000014774.png,experiment,p,p,451.11747569999716
1,22,Male,Right,20,Block 1,0.9825650000057067,0.1,true,bus,bus,occlusion,low,mask,partial viewing,many small,Stimulus\all_stim\occlusion\partialviewing\manysmall\low\manysmall_partialViewing_low_bus10.png,mask_img/000000058595.png,experiment,r,r,453.04655079999793
1,22,Male,Right,21,Block 1,0.9597211000000243,0.025,true,cat,cat,occlusion,low,mask,partial viewing,few large,Stimulus\all_stim\occlusion\partialviewing\fewlarge\low\fewlarge_partialViewing_low_cat4.png,mask_img/000000027675.png,experiment,u,u,454.90951949999726
1,22,Male,Right,22,Block 1,0.9310299999997369,0.1,true,banana,banana,occlusion,low,mask,partial viewing,few large,Stimulus\all_stim\occlusion\partialviewing\fewlarge\low\fewlarge_partialViewing_low_banana8.png,mask_img/000000023656.png,experiment,w,w,456.5659286000009
1,22,Male,Right,23,Block 1,0.9533499000026495,0.05,true,person,person,occlusion,low,mask,partial viewing,many small,Stimulus\all_stim\occlusion\partialviewing\manysmall\low\manysmall_partialViewing_low_person8.png,mask_img/000000062420.png,experiment,q,q,458.28552969999873
1,22,Male,Right,24,Block 1,0.9662380999943707,0.1,true,firehydrant,firehydrant,occlusion,control,mask,partial viewing,many small,Stimulus\all_stim\occlusion\partialviewing\manysmall\control\manysmall_partialViewing_control_firehydrant9.png,mask_img/000000039643.png,experiment,o,o,460.0695799000023
1,22,Male,Right,25,Block 1,0.7629673999981605,0.1,true,person,person,occlusion,control,mask,partial viewing,many small,Stimulus\all_stim\occlusion\partialviewing\manysmall\control\manysmall_partialViewing_control_person9.png,mask_img/000000040771.png,experiment,q,q,461.7102478000015
1,22,Male,Right,26,Block 1,0.8910134000034304,0.025,true,person,person,occlusion,low,mask,partial viewing,few large,Stimulus\all_stim\occlusion\partialviewing\fewlarge\low\fewlarge_partialViewing_low_person9.png,mask_img/000000031017.png,experiment,q,q,463.31771370000206
1,22,Male,Right,27,Block 1,0.8952619999981835,0.05,true,person,person,occlusion,control,mask,partial viewing,many small,Stimulus\all_stim\occlusion\partialviewing\manysmall\control\manysmall_partialViewing_control_person10.png,mask_img/000000039778.png,experiment,q,q,465.0616009000005
1,22,Male,Right,28,Block 1,0.9421548000027542,0.1,true,building,building,occlusion,control,mask,partial viewing,few large,Stimulus\all_stim\occlusion\partialviewing\fewlarge\control\fewlarge_partialViewing_control_building3.png,mask_img/000000003694.png,experiment,p,p,466.82990620000055
1,22,Male,Right,29,Block 1,0.9535367999997106,0.025,true,banana,banana,occlusion,control,mask,partial viewing,few large,Stimulus\all_stim\occlusion\partialviewing\fewlarge\control\fewlarge_partialViewing_control_banana1.png,mask_img/000000000042.png,experiment,w,w,468.6214504000018
1,22,Male,Right,30,Block 1,1.3558668999976362,0.1,true,tree,tree,occlusion,high,mask,partial viewing,many small,Stimulus\all_stim\occlusion\partialviewing\manysmall\high\manysmall_partialViewing_high_tree3.png,mask_img/000000052936.png,experiment,i,i,470.71795790000033
1,22,Male,Right,31,Block 1,0.8894354000003659,0.025,true,tree,tree,occlusion,control,mask,partial viewing,many small,Stimulus\all_stim\occlusion\partialviewing\manysmall\control\manysmall_partialViewing_control_tree8.png,mask_img/000000041577.png,experiment,i,i,472.32534979999764
1,22,Male,Right,32,Block 1,1.4530842000021948,0.1,true,tree,tree,occlusion,high,mask,partial viewing,few large,Stimulus\all_stim\occlusion\partialviewing\fewlarge\high\fewlarge_partialViewing_high_tree10.png,mask_img/000000021419.png,experiment,i,i,474.45431539999845
1,22,Male,Right,33,Block 1,1.1543776000034995,0.05,true,bus,bus,occlusion,low,mask,partial viewing,few large,Stimulus\all_stim\occlusion\partialviewing\fewlarge\low\fewlarge_partialViewing_low_bus9.png,mask_img/000000027005.png,experiment,r,r,476.469760400003
1,22,Male,Right,34,Block 1,2.311336599996139,0.1,false,person,building,occlusion,high,mask,partial viewing,many small,Stimulus\all_stim\occlusion\partialviewing\manysmall\high\manysmall_partialViewing_high_person3.png,mask_img/000000051880.png,experiment,p,q,479.877739800002
1,22,Male,Right,35,Block 1,0.858853799996723,0.05,true,person,person,occlusion,low,mask,partial viewing,few large,Stimulus\all_stim\occlusion\partialviewing\fewlarge\low\fewlarge_partialViewing_low_person1.png,mask_img/000000029090.png,experiment,q,q,481.533577299997
1,22,Male,Right,36,Block 1,0.9973983000018052,0.025,true,tree,tree,occlusion,low,mask,partial viewing,many small,Stimulus\all_stim\occlusion\partialviewing\manysmall\low\manysmall_partialViewing_low_tree5.png,mask_img/000000063482.png,experiment,i,i,483.20563299999776
1,22,Male,Right,37,Block 1,1.0540120000005118,0.1,true,person,person,occlusion,low,mask,partial viewing,many small,Stimulus\all_stim\occlusion\partialviewing\manysmall\low\manysmall_partialViewing_low_person8.png,mask_img/000000062420.png,experiment,q,q,485.0704723000017
1,22,Male,Right,38,Block 1,2.1144176999951014,0.1,false,banana,bird,occlusion,high,mask,partial viewing,few large,Stimulus\all_stim\occlusion\partialviewing\fewlarge\high\fewlarge_partialViewing_high_banana1.png,mask_img/000000011754.png,experiment,e,w,488.27779100000043
1,22,Male,Right,39,Block 1,1.0052845000027446,0.05,true,tree,tree,occlusion,low,mask,partial viewing,many small,Stimulus\all_stim\occlusion\partialviewing\manysmall\low\manysmall_partialViewing_low_tree2.png,mask_img/000000062875.png,experiment,i,i,490.42214680000325
1,22,Male,Right,40,Block 1,0.9059017000035965,0.1,true,tree,tree,occlusion,high,mask,partial viewing,many small,Stimulus\all_stim\occlusion\partialviewing\manysmall\high\manysmall_partialViewing_high_tree9.png,mask_img/000000054336.png,experiment,i,i,492.1979386000021
1,22,Male,Right,41,Block 1,0.9125349999958416,0.025,true,tree,tree,occlusion,low,mask,partial viewing,few large,Stimulus\all_stim\occlusion\partialviewing\fewlarge\low\fewlarge_partialViewing_low_tree8.png,mask_img/000000032918.png,experiment,i,i,494.00540139999794
1,22,Male,Right,42,Block 1,0.9326168999978108,0.1,true,bus,bus,occlusion,high,mask,partial viewing,many small,Stimulus\all_stim\occlusion\partialviewing\manysmall\high\manysmall_partialViewing_high_bus4.png,mask_img/000000047316.png,experiment,r,r,495.6139645000003
1,22,Male,Right,43,Block 1,0.8730469000001904,0.05,true,building,building,occlusion,control,mask,partial viewing,many small,Stimulus\all_stim\occlusion\partialviewing\manysmall\control\manysmall_partialViewing_control_building7.png,mask_img/000000036029.png,experiment,p,p,497.3337010999967
1,22,Male,Right,44,Block 1,0.9574133999994956,0.025,true,bus,bus,occlusion,high,mask,partial viewing,many small,Stimulus\all_stim\occlusion\partialviewing\manysmall\high\manysmall_partialViewing_high_bus1.png,mask_img/000000046676.png,experiment,r,r,498.9977727000005
1,22,Male,Right,45,Block 1,0.9506065000023227,0.025,false,person,tree,occlusion,high,mask,partial viewing,many small,Stimulus\all_stim\occlusion\partialviewing\manysmall\high\manysmall_partialViewing_high_person7.png,mask_img/000000052562.png,experiment,i,q,500.9179116000014
1,22,Male,Right,46,Block 1,1.018679399996472,0.1,true,cat,cat,occlusion,control,mask,partial viewing,many small,Stimulus\all_stim\occlusion\partialviewing\manysmall\control\manysmall_partialViewing_control_cat6.png,mask_img/000000038753.png,experiment,u,u,502.9100447000019
1,22,Male,Right,47,Block 1,0.9128199000042514,0.025,true,cat,cat,occlusion,low,mask,partial viewing,few large,Stimulus\all_stim\occlusion\partialviewing\fewlarge\low\fewlarge_partialViewing_low_cat5.png,mask_img/000000027704.png,experiment,u,u,504.7014663000009
1,22,Male,Right,48,Block 1,0.9396658999976353,0.1,true,building,building,occlusion,high,mask,partial viewing,many small,Stimulus\all_stim\occlusion\partialviewing\manysmall\high\manysmall_partialViewing_high_building3.png,mask_img/000000045655.png,experiment,p,p,506.56569489999674
1,22,Male,Right,49,Block 1,1.6327242999977898,0.025,true,cat,cat,occlusion,low,mask,partial viewing,many small,Stimulus\all_stim\occlusion\partialviewing\manysmall\low\manysmall_partialViewing_low_cat5.png,mask_img/000000059660.png,experiment,u,u,508.99946120000095
1,22,Male,Right,50,Block 1,1.1966924000007566,0.025,false,cat,tree,occlusion,high,mask,partial viewing,many small,Stimulus\all_stim\occlusion\partialviewing\manysmall\high\manysmall_partialViewing_high_cat5.png,mask_img/000000049428.png,experiment,i,u,511.3016856999966
1,22,Male,Right,51,Block 1,0.8668162000030861,0.05,true,tree,tree,occlusion,high,mask,partial viewing,few large,Stimulus\all_stim\occlusion\partialviewing\fewlarge\high\fewlarge_partialViewing_high_tree3.png,mask_img/000000021942.png,experiment,i,i,512.9018301999968
1,22,Male,Right,52,Block 1,0.9198116999978083,0.1,true,bus,bus,occlusion,high,mask,partial viewing,few large,Stimulus\all_stim\occlusion\partialviewing\fewlarge\high\fewlarge_partialViewing_high_bus4.png,mask_img/000000015927.png,experiment,r,r,514.5819308999999
1,22,Male,Right,53,Block 1,1.5101684000037494,0.025,true,building,building,occlusion,low,mask,partial viewing,many small,Stimulus\all_stim\occlusion\partialviewing\manysmall\low\manysmall_partialViewing_low_building4.png,mask_img/000000057782.png,experiment,p,p,516.8941556999998
1,22,Male,Right,54,Block 1,1.1769643000006909,0.025,true,bird,bird,occlusion,control,mask,partial viewing,few large,Stimulus\all_stim\occlusion\partialviewing\fewlarge\control\fewlarge_partialViewing_control_bird2.png,mask_img/000000001647.png,experiment,e,e,519.1735208000027
1,22,Male,Right,55,Block 1,0.9175340000001597,0.025,true,building,building,occlusion,high,mask,partial viewing,few large,Stimulus\all_stim\occlusion\partialviewing\fewlarge\high\fewlarge_partialViewing_high_building8.png,mask_img/000000015366.png,experiment,p,p,521.0138422000018
1,22,Male,Right,56,Block 1,0.884265200002119,0.1,true,building,building,occlusion,control,mask,partial viewing,many small,Stimulus\all_stim\occlusion\partialviewing\manysmall\control\manysmall_partialViewing_control_building2.png,mask_img/000000035864.png,experiment,p,p,522.6622631999999
1,22,Male,Right,57,Block 1,0.947099299999536,0.1,true,banana,banana,occlusion,high,mask,partial viewing,few large,Stimulus\all_stim\occlusion\partialviewing\fewlarge\high\fewlarge_partialViewing_high_banana8.png,mask_img/000000012733.png,experiment,w,w,524.4222460000019
1,22,Male,Right,58,Block 1,1.4355630999998539,0.05,false,firehydrant,tree,occlusion,high,mask,partial viewing,few large,Stimulus\all_stim\occlusion\partialviewing\fewlarge\high\fewlarge_partialViewing_high_firehydrant10.png,mask_img/000000018441.png,experiment,i,o,526.7016691000026
1,22,Male,Right,59,Block 1,0.8845929999952205,0.1,true,firehydrant,firehydrant,occlusion,control,mask,partial viewing,many small,Stimulus\all_stim\occlusion\partialviewing\manysmall\control\manysmall_partialViewing_control_firehydrant6.png,mask_img/000000039406.png,experiment,o,o,528.333942899997
1,22,Male,Right,60,Block 1,0.8672618999989936,0.05,true,building,building,occlusion,control,mask,partial viewing,few large,Stimulus\all_stim\occlusion\partialviewing\fewlarge\control\fewlarge_partialViewing_control_building3.png,mask_img/000000003694.png,experiment,p,p,530.2939590000024
1,22,Male,Right,61,Block 1,0.8730128000024706,0.025,true,person,person,occlusion,low,mask,partial viewing,many small,Stimulus\all_stim\occlusion\partialviewing\manysmall\low\manysmall_partialViewing_low_person9.png,mask_img/000000062427.png,experiment,q,q,532.0053372999973
1,22,Male,Right,62,Block 1,0.9642712999993819,0.1,true,cat,cat,occlusion,control,mask,partial viewing,few large,Stimulus\all_stim\occlusion\partialviewing\fewlarge\control\fewlarge_partialViewing_control_cat4.png,mask_img/000000006842.png,experiment,u,u,533.8058732999998
1,22,Male,Right,63,Block 1,1.0725149999998393,0.1,true,tree,tree,occlusion,low,mask,partial viewing,few large,Stimulus\all_stim\occlusion\partialviewing\fewlarge\low\fewlarge_partialViewing_low_tree10.png,mask_img/000000031454.png,experiment,i,i,535.870503099999
1,22,Male,Right,64,Block 1,0.8942806999984896,0.1,true,building,building,occlusion,low,mask,partial viewing,few large,Stimulus\all_stim\occlusion\partialviewing\fewlarge\low\fewlarge_partialViewing_low_building4.png,mask_img/000000024912.png,experiment,p,p,537.5420395000037
1,22,Male,Right,65,Block 1,0.8335771999991266,0.025,true,building,building,occlusion,high,mask,partial viewing,many small,Stimulus\all_stim\occlusion\partialviewing\manysmall\high\manysmall_partialViewing_high_building9.png,mask_img/000000046345.png,experiment,p,p,539.469757699997
1,22,Male,Right,66,Block 1,0.8599813999971957,0.05,true,building,building,occlusion,low,mask,partial viewing,many small,Stimulus\all_stim\occlusion\partialviewing\manysmall\low\manysmall_partialViewing_low_building8.png,mask_img/000000058073.png,experiment,p,p,541.2460530000026
1,22,Male,Right,67,Block 1,0.9047467999989749,0.025,true,bus,bus,occlusion,control,mask,partial viewing,many small,Stimulus\all_stim\occlusion\partialviewing\manysmall\control\manysmall_partialViewing_control_bus3.png,mask_img/000000036765.png,experiment,r,r,542.9256794999965
1,22,Male,Right,68,Block 1,1.0338193999996292,0.05,false,cat,tree,occlusion,high,mask,partial viewing,many small,Stimulus\all_stim\occlusion\partialviewing\manysmall\high\manysmall_partialViewing_high_cat9.png,mask_img/000000049933.png,experiment,i,u,544.990017600001
1,22,Male,Right,69,Block 1,1.1698212000046624,0.05,true,tree,tree,occlusion,high,mask,partial viewing,many small,Stimulus\all_stim\occlusion\partialviewing\manysmall\high\manysmall_partialViewing_high_tree6.png,mask_img/000000053539.png,experiment,i,i,547.2618205000035
1,22,Male,Right,70,Block 1,1.1943851000032737,0.025,false,person,firehydrant,occlusion,high,mask,partial viewing,few large,Stimulus\all_stim\occlusion\partialviewing\fewlarge\high\fewlarge_partialViewing_high_person6.png,mask_img/000000020392.png,experiment,o,q,549.3495882999996
1,22,Male,Right,71,Block 1,1.0941084000005503,0.1,true,firehydrant,firehydrant,occlusion,high,mask,partial viewing,few large,Stimulus\all_stim\occlusion\partialviewing\fewlarge\high\fewlarge_partialViewing_high_firehydrant4.png,mask_img/000000018882.png,experiment,o,o,551.1659645999971
1,22,Male,Right,72,Block 1,0.8162688000011258,0.025,true,building,building,occlusion,control,mask,partial viewing,few large,Stimulus\all_stim\occlusion\partialviewing\fewlarge\control\fewlarge_partialViewing_control_building1.png,mask_img/000000003084.png,experiment,p,p,552.6537802000021
1,22,Male,Right,73,Block 1,0.7237168999999994,0.025,true,building,building,occlusion,low,mask,partial viewing,few large,Stimulus\all_stim\occlusion\partialviewing\fewlarge\low\fewlarge_partialViewing_low_building4.png,mask_img/000000024912.png,experiment,p,p,554.0538835999978
1,22,Male,Right,74,Block 1,0.8586427999980515,0.05,true,banana,banana,occlusion,control,mask,partial viewing,many small,Stimulus\all_stim\occlusion\partialviewing\manysmall\control\manysmall_partialViewing_control_banana4.png,mask_img/000000033667.png,experiment,w,w,555.9017419000011
1,22,Male,Right,75,Block 1,0.9406990999996196,0.1,true,tree,tree,occlusion,control,mask,partial viewing,few large,Stimulus\all_stim\occlusion\partialviewing\fewlarge\control\fewlarge_partialViewing_control_tree10.png,mask_img/000000010414.png,experiment,i,i,557.7896840999965
1,22,Male,Right,76,Block 1,1.8446383000045898,0.025,false,person,cat,occlusion,low,mask,partial viewing,few large,Stimulus\all_stim\occlusion\partialviewing\fewlarge\low\fewlarge_partialViewing_low_person5.png,mask_img/000000029964.png,experiment,u,q,560.6785168999995
1,22,Male,Right,77,Block 1,0.9242959999974119,0.025,true,banana,banana,occlusion,low,mask,partial viewing,many small,Stimulus\all_stim\occlusion\partialviewing\manysmall\low\manysmall_partialViewing_low_banana4.png,mask_img/000000055202.png,experiment,w,w,562.6456040999983
1,22,Male,Right,78,Block 1,0.7272415999977966,0.025,true,building,building,occlusion,high,mask,partial viewing,many small,Stimulus\all_stim\occlusion\partialviewing\manysmall\high\manysmall_partialViewing_high_building5.png,mask_img/000000046029.png,experiment,p,p,564.4615185000002
1,22,Male,Right,79,Block 1,1.0981085999956122,0.025,true,person,person,occlusion,high,mask,partial viewing,few large,Stimulus\all_stim\occlusion\partialviewing\fewlarge\high\fewlarge_partialViewing_high_person10.png,mask_img/000000019927.png,experiment,q,q,566.6783335
1,22,Male,Right,80,Block 1,0.9075766999958432,0.025,true,bus,bus,occlusion,control,mask,partial viewing,many small,Stimulus\all_stim\occlusion\partialviewing\manysmall\control\manysmall_partialViewing_control_bus6.png,mask_img/000000037174.png,experiment,r,r,568.3819765000007
1,22,Male,Right,81,Block 1,0.9530838999999105,0.1,true,tree,tree,occlusion,high,mask,partial viewing,few large,Stimulus\all_stim\occlusion\partialviewing\fewlarge\high\fewlarge_partialViewing_high_tree4.png,mask_img/000000021981.png,experiment,i,i,570.3263742999989
1,22,Male,Right,82,Block 1,0.8310946999990847,0.05,true,tree,tree,occlusion,low,mask,partial viewing,many small,Stimulus\all_stim\occlusion\partialviewing\manysmall\low\manysmall_partialViewing_low_tree1.png,mask_img/000000062690.png,experiment,i,i,572.0377701999969
1,22,Male,Right,83,Block 1,0.9218551999947522,0.1,true,building,building,occlusion,low,mask,partial viewing,many small,Stimulus\all_stim\occlusion\partialviewing\manysmall\low\manysmall_partialViewing_low_building10.png,mask_img/000000057068.png,experiment,p,p,573.741806500002
1,22,Male,Right,84,Block 1,0.7679866999969818,0.05,true,bus,bus,occlusion,low,mask,partial viewing,many small,Stimulus\all_stim\occlusion\partialviewing\manysmall\low\manysmall_partialViewing_low_bus6.png,mask_img/000000058815.png,experiment,r,r,575.4617072000037
1,22,Male,Right,85,Block 1,0.9540417000025627,0.1,true,building,building,occlusion,low,mask,partial viewing,few large,Stimulus\all_stim\occlusion\partialviewing\fewlarge\low\fewlarge_partialViewing_low_building7.png,mask_img/000000025192.png,experiment,p,p,577.2860846999974
1,22,Male,Right,86,Block 1,0.9155200000022887,0.025,true,cat,cat,occlusion,control,mask,partial viewing,many small,Stimulus\all_stim\occlusion\partialviewing\manysmall\control\manysmall_partialViewing_control_cat3.png,mask_img/000000038381.png,experiment,u,u,578.9096961000032
1,22,Male,Right,87,Block 1,1.002775200002361,0.05,false,bird,tree,occlusion,high,mask,partial viewing,few large,Stimulus\all_stim\occlusion\partialviewing\fewlarge\high\fewlarge_partialViewing_high_bird6.png,mask_img/000000013944.png,experiment,i,e,581.0055913000033
1,22,Male,Right,88,Block 1,0.7933537999997498,0.025,true,bus,bus,occlusion,low,mask,partial viewing,few large,Stimulus\all_stim\occlusion\partialviewing\fewlarge\low\fewlarge_partialViewing_low_bus4.png,mask_img/000000026053.png,experiment,r,r,582.5337666999985
1,22,Male,Right,89,Block 1,1.0744849000038812,0.1,true,banana,banana,occlusion,control,mask,partial viewing,few large,Stimulus\all_stim\occlusion\partialviewing\fewlarge\control\fewlarge_partialViewing_control_banana4.png,mask_img/000000000438.png,experiment,w,w,584.6779333000013
1,22,Male,Right,90,Block 1,1.0414201000021421,0.025,false,bird,tree,occlusion,high,mask,partial viewing,few large,Stimulus\all_stim\occlusion\partialviewing\fewlarge\high\fewlarge_partialViewing_high_bird6.png,mask_img/000000013944.png,experiment,i,e,586.8299437000023
1,22,Male,Right,91,Block 1,0.8881783000033465,0.05,true,cat,cat,occlusion,control,mask,partial viewing,many small,Stimulus\all_stim\occlusion\partialviewing\manysmall\control\manysmall_partialViewing_control_cat5.png,mask_img/000000038601.png,experiment,u,u,588.4378647999984
1,22,Male,Right,92,Block 1,0.9157231000062893,0.05,true,cat,cat,occlusion,control,mask,partial viewing,few large,Stimulus\all_stim\occlusion\partialviewing\fewlarge\control\fewlarge_partialViewing_control_cat6.png,mask_img/000000007179.png,experiment,u,u,590.0537871999986
1,22,Male,Right,93,Block 1,0.8551641000012751,0.05,true,person,person,occlusion,control,mask,partial viewing,many small,Stimulus\all_stim\occlusion\partialviewing\manysmall\control\manysmall_partialViewing_control_person5.png,mask_img/000000040275.png,experiment,q,q,591.7814377000032
1,22,Male,Right,94,Block 1,1.488639899995178,0.1,false,person,tree,occlusion,high,mask,partial viewing,many small,Stimulus\all_stim\occlusion\partialviewing\manysmall\high\manysmall_partialViewing_high_person8.png,mask_img/000000052606.png,experiment,i,q,594.0460623000035
1,22,Male,Right,95,Block 1,0.8023268999968423,0.025,true,bus,bus,occlusion,control,mask,partial viewing,few large,Stimulus\all_stim\occlusion\partialviewing\fewlarge\control\fewlarge_partialViewing_control_bus8.png,mask_img/000000006153.png,experiment,r,r,595.7897187999988
1,22,Male,Right,96,Block 1,1.2004808999990928,0.05,false,banana,tree,occlusion,high,mask,partial viewing,many small,Stimulus\all_stim\occlusion\partialviewing\manysmall\high\manysmall_partialViewing_high_banana9.png,mask_img/000000043579.png,experiment,i,w,597.8937529000032
1,22,Male,Right,97,Block 1,0.7247855000023264,0.05,true,building,building,occlusion,low,mask,partial viewing,few large,Stimulus\all_stim\occlusion\partialviewing\fewlarge\low\fewlarge_partialViewing_low_building1.png,mask_img/000000024552.png,experiment,p,p,599.3899879000019
1,22,Male,Right,98,Block 1,0.7724579000059748,0.1,true,person,person,occlusion,high,mask,partial viewing,few large,Stimulus\all_stim\occlusion\partialviewing\fewlarge\high\fewlarge_partialViewing_high_person4.png,mask_img/000000020202.png,experiment,q,q,601.0137189000015
1,22,Male,Right,99,Block 1,0.9180051000003004,0.05,true,bus,bus,occlusion,control,mask,partial viewing,many small,Stimulus\all_stim\occlusion\partialviewing\manysmall\control\manysmall_partialViewing_control_bus5.png,mask_img/000000037140.png,experiment,r,r,603.0779637000014
1,22,Male,Right,100,Block 1,0.9382416000007652,0.025,true,cat,cat,occlusion,high,mask,partial viewing,few large,Stimulus\all_stim\occlusion\partialviewing\fewlarge\high\fewlarge_partialViewing_high_cat6.png,mask_img/000000017476.png,experiment,u,u,604.8060652999993
1,22,Male,Right,101,Block 1,1.1416390000013052,0.025,false,banana,tree,occlusion,high,mask,partial viewing,many small,Stimulus\all_stim\occlusion\partialviewing\manysmall\high\manysmall_partialViewing_high_banana8.png,mask_img/000000043291.png,experiment,i,w,606.6781779000012
1,22,Male,Right,102,Block 1,0.8895023000004585,0.025,true,building,building,occlusion,high,mask,partial viewing,many small,Stimulus\all_stim\occlusion\partialviewing\manysmall\high\manysmall_partialViewing_high_building8.png,mask_img/000000046245.png,experiment,p,p,608.4297739999965
1,22,Male,Right,103,Block 1,0.9800438999955077,0.1,true,building,building,occlusion,high,mask,partial viewing,few large,Stimulus\all_stim\occlusion\partialviewing\fewlarge\high\fewlarge_partialViewing_high_building5.png,mask_img/000000014759.png,experiment,p,p,610.3492769000004
1,22,Male,Right,104,Block 1,0.9267315000033705,0.1,false,person,firehydrant,occlusion,low,mask,partial viewing,many small,Stimulus\all_stim\occlusion\partialviewing\manysmall\low\manysmall_partialViewing_low_person5.png,mask_img/000000062193.png,experiment,o,q,612.0137679999971
1,22,Male,Right,105,Block 1,0.7522917000023881,0.025,true,bus,bus,occlusion,high,mask,partial viewing,few large,Stimulus\all_stim\occlusion\partialviewing\fewlarge\high\fewlarge_partialViewing_high_bus10.png,mask_img/000000015733.png,experiment,r,r,613.5021568000011
1,22,Male,Right,106,Block 1,0.8300047000011546,0.025,true,tree,tree,occlusion,control,mask,partial viewing,many small,Stimulus\all_stim\occlusion\partialviewing\manysmall\control\manysmall_partialViewing_control_tree4.png,mask_img/000000041022.png,experiment,i,i,615.1894466000012
1,22,Male,Right,107,Block 1,1.09532699999545,0.025,false,banana,bus,occlusion,high,mask,partial viewing,few large,Stimulus\all_stim\occlusion\partialviewing\fewlarge\high\fewlarge_partialViewing_high_banana3.png,mask_img/000000012313.png,experiment,r,w,616.9658247999978
1,22,Male,Right,108,Block 1,0.6937036999952397,0.025,true,person,person,occlusion,control,mask,partial viewing,few large,Stimulus\all_stim\occlusion\partialviewing\fewlarge\control\fewlarge_partialViewing_control_person2.png,mask_img/000000008787.png,experiment,q,q,618.5025775000031
1,22,Male,Right,109,Block 1,0.7940269000027911,0.1,true,banana,banana,occlusion,low,mask,partial viewing,few large,Stimulus\all_stim\occlusion\partialviewing\fewlarge\low\fewlarge_partialViewing_low_banana3.png,mask_img/000000023004.png,experiment,w,w,620.1818781999973
1,22,Male,Right,110,Block 1,0.871579999999085,0.1,true,bird,bird,occlusion,low,mask,partial viewing,many small,Stimulus\all_stim\occlusion\partialviewing\manysmall\low\manysmall_partialViewing_low_bird10.png,mask_img/000000055733.png,experiment,e,e,621.7260122000007
1,22,Male,Right,111,Block 1,1.0748085000013816,0.1,false,firehydrant,bird,occlusion,low,mask,partial viewing,few large,Stimulus\all_stim\occlusion\partialviewing\fewlarge\low\fewlarge_partialViewing_low_firehydrant1.png,mask_img/000000028304.png,experiment,e,o,623.5336528999978
1,22,Male,Right,112,Block 1,1.7125066000007791,0.025,true,person,person,occlusion,high,mask,partial viewing,few large,Stimulus\all_stim\occlusion\partialviewing\fewlarge\high\fewlarge_partialViewing_high_person2.png,mask_img/000000019932.png,experiment,q,q,626.3258493999965
1,22,Male,Right,113,Block 1,1.1738679999980377,0.025,true,firehydrant,firehydrant,occlusion,low,mask,partial viewing,many small,Stimulus\all_stim\occlusion\partialviewing\manysmall\low\manysmall_partialViewing_low_firehydrant9.png,mask_img/000000061693.png,experiment,o,o,628.1739501999982
1,22,Male,Right,114,Block 1,0.8331030000044848,0.05,false,bird,banana,occlusion,control,mask,partial viewing,many small,Stimulus\all_stim\occlusion\partialviewing\manysmall\control\manysmall_partialViewing_control_bird8.png,mask_img/000000035190.png,experiment,w,e,630.1019014999983
1,22,Male,Right,115,Block 1,1.1856993999972474,0.05,true,tree,tree,occlusion,low,mask,partial viewing,many small,Stimulus\all_stim\occlusion\partialviewing\manysmall\low\manysmall_partialViewing_low_tree6.png,mask_img/000000063715.png,experiment,i,i,631.9979011999967
1,22,Male,Right,116,Block 1,0.8996049999987008,0.1,true,building,building,occlusion,control,mask,partial viewing,many small,Stimulus\all_stim\occlusion\partialviewing\manysmall\control\manysmall_partialViewing_control_building7.png,mask_img/000000036029.png,experiment,p,p,633.8382148000019
1,22,Male,Right,117,Block 1,0.868742899998324,0.025,true,cat,cat,occlusion,control,mask,partial viewing,many small,Stimulus\all_stim\occlusion\partialviewing\manysmall\control\manysmall_partialViewing_control_cat6.png,mask_img/000000038753.png,experiment,u,u,635.8223597000033
1,22,Male,Right,118,Block 1,1.3437441999994917,0.1,false,cat,tree,occlusion,low,mask,partial viewing,many small,Stimulus\all_stim\occlusion\partialviewing\manysmall\low\manysmall_partialViewing_low_cat2.png,mask_img/000000059201.png,experiment,i,u,638.0541239000013
1,22,Male,Right,119,Block 1,0.8265726000026916,0.025,true,building,building,occlusion,control,mask,partial viewing,many small,Stimulus\all_stim\occlusion\partialviewing\manysmall\control\manysmall_partialViewing_control_building3.png,mask_img/000000035979.png,experiment,p,p,639.926098099997
1,22,Male,Right,120,Block 1,1.1351211000001058,0.025,true,bus,bus,occlusion,control,mask,partial viewing,few large,Stimulus\all_stim\occlusion\partialviewing\fewlarge\control\fewlarge_partialViewing_control_bus3.png,mask_img/000000005418.png,experiment,r,r,641.8778404999975
1,22,Male,Right,121,Block 1,0.9609827000022051,0.025,false,building,tree,occlusion,high,mask,partial viewing,many small,Stimulus\all_stim\occlusion\partialviewing\manysmall\high\manysmall_partialViewing_high_building7.png,mask_img/000000046171.png,experiment,i,p,643.8778709000035
1,22,Male,Right,122,Block 1,0.9004339999955846,0.1,true,tree,tree,occlusion,low,mask,partial viewing,few large,Stimulus\all_stim\occlusion\partialviewing\fewlarge\low\fewlarge_partialViewing_low_tree6.png,mask_img/000000032720.png,experiment,i,i,645.429813900002
1,22,Male,Right,123,Block 1,0.8025834000000032,0.025,true,building,building,occlusion,control,mask,partial viewing,few large,Stimulus\all_stim\occlusion\partialviewing\fewlarge\control\fewlarge_partialViewing_control_building5.png,mask_img/000000004642.png,experiment,p,p,646.9419830999977
1,22,Male,Right,124,Block 1,0.9459380999978748,0.1,true,bus,bus,occlusion,control,mask,partial viewing,many small,Stimulus\all_stim\occlusion\partialviewing\manysmall\control\manysmall_partialViewing_control_bus1.png,mask_img/000000036255.png,experiment,r,r,648.7898245999968
1,22,Male,Right,125,Block 1,0.7276611000052071,0.1,true,person,person,occlusion,low,mask,partial viewing,few large,Stimulus\all_stim\occlusion\partialviewing\fewlarge\low\fewlarge_partialViewing_low_person10.png,mask_img/000000029128.png,experiment,q,q,650.5974062000023
1,22,Male,Right,126,Block 1,0.8744724999996834,0.05,false,bird,tree,occlusion,high,mask,partial viewing,many small,Stimulus\all_stim\occlusion\partialviewing\manysmall\high\manysmall_partialViewing_high_bird2.png,mask_img/000000044117.png,experiment,i,e,652.3099318000022
1,22,Male,Right,127,Block 1,1.1799671000044327,0.025,true,bird,bird,occlusion,control,mask,partial viewing,many small,Stimulus\all_stim\occlusion\partialviewing\manysmall\control\manysmall_partialViewing_control_bird1.png,mask_img/000000034113.png,experiment,e,e,654.4776962000033
1,22,Male,Right,128,Block 1,1.0728533000001335,0.025,false,cat,tree,occlusion,low,mask,partial viewing,many small,Stimulus\all_stim\occlusion\partialviewing\manysmall\low\manysmall_partialViewing_low_cat6.png,mask_img/000000059918.png,experiment,i,u,656.2776274999997
1,22,Male,Right,129,Block 1,1.1004696000018157,0.1,true,building,building,occlusion,high,mask,partial viewing,few large,Stimulus\all_stim\occlusion\partialviewing\fewlarge\high\fewlarge_partialViewing_high_building8.png,mask_img/000000015366.png,experiment,p,p,658.0539868999986
1,22,Male,Right,130,Block 1,1.352189900004305,0.1,false,bird,tree,occlusion,high,mask,partial viewing,few large,Stimulus\all_stim\occlusion\partialviewing\fewlarge\high\fewlarge_partialViewing_high_bird9.png,mask_img/000000014175.png,experiment,i,e,660.5258696000019
1,22,Male,Right,131,Block 1,1.2259144999989076,0.05,true,bird,bird,occlusion,low,mask,partial viewing,many small,Stimulus\all_stim\occlusion\partialviewing\manysmall\low\manysmall_partialViewing_low_bird10.png,mask_img/000000055733.png,experiment,e,e,662.5740860000005
1,22,Male,Right,132,Block 1,0.7062873999966541,0.05,true,banana,banana,occlusion,low,mask,partial viewing,many small,Stimulus\all_stim\occlusion\partialviewing\manysmall\low\manysmall_partialViewing_low_banana5.png,mask_img/000000055388.png,experiment,w,w,664.2539271999995
1,22,Male,Right,133,Block 1,0.9696896000023116,0.05,true,bus,bus,occlusion,high,mask,partial viewing,few large,Stimulus\all_stim\occlusion\partialviewing\fewlarge\high\fewlarge_partialViewing_high_bus6.png,mask_img/000000015987.png,experiment,r,r,666.0217180999971
1,22,Male,Right,134,Block 1,0.8163517000066349,0.025,true,banana,banana,occlusion,control,mask,partial viewing,few large,Stimulus\all_stim\occlusion\partialviewing\fewlarge\control\fewlarge_partialViewing_control_banana2.png,mask_img/000000000312.png,experiment,w,w,667.5098504999987
1,22,Male,Right,135,Block 1,0.7900712000046042,0.05,true,firehydrant,firehydrant,occlusion,high,mask,partial viewing,few large,Stimulus\all_stim\occlusion\partialviewing\fewlarge\high\fewlarge_partialViewing_high_firehydrant8.png,mask_img/000000019528.png,experiment,o,o,669.0777193999966
1,22,Male,Right,136,Block 1,0.9052066000003833,0.05,true,tree,tree,occlusion,high,mask,partial viewing,many small,Stimulus\all_stim\occlusion\partialviewing\manysmall\high\manysmall_partialViewing_high_tree2.png,mask_img/000000052901.png,experiment,i,i,670.8618730000017
1,22,Male,Right,137,Block 1,1.6870989999952144,0.1,false,person,building,occlusion,high,mask,partial viewing,many small,Stimulus\all_stim\occlusion\partialviewing\manysmall\high\manysmall_partialViewing_high_person5.png,mask_img/000000052250.png,experiment,p,q,673.4137327999997
1,22,Male,Right,138,Block 1,0.9640282999971532,0.025,true,person,person,occlusion,low,mask,partial viewing,few large,Stimulus\all_stim\occlusion\partialviewing\fewlarge\low\fewlarge_partialViewing_low_person6.png,mask_img/000000030267.png,experiment,q,q,675.157925200001
1,22,Male,Right,139,Block 1,0.9505271999951219,0.05,false,building,tree,occlusion,high,mask,partial viewing,few large,Stimulus\all_stim\occlusion\partialviewing\fewlarge\high\fewlarge_partialViewing_high_building4.png,mask_img/000000014592.png,experiment,i,p,676.7579718999987
1,22,Male,Right,140,Block 1,1.0275798999937251,0.025,true,bird,bird,occlusion,control,mask,partial viewing,many small,Stimulus\all_stim\occlusion\partialviewing\manysmall\control\manysmall_partialViewing_control_bird5.png,mask_img/000000034930.png,experiment,e,e,678.7898503999968
1,22,Male,Right,141,Block 1,0.9568157000030624,0.1,false,bird,tree,occlusion,high,mask,partial viewing,many small,Stimulus\all_stim\occlusion\partialviewing\manysmall\high\manysmall_partialViewing_high_bird2.png,mask_img/000000044117.png,experiment,i,e,680.8380831999966
1,22,Male,Right,142,Block 1,0.8867223999986891,0.05,true,tree,tree,occlusion,control,mask,partial viewing,few large,Stimulus\all_stim\occlusion\partialviewing\fewlarge\control\fewlarge_partialViewing_control_tree8.png,mask_img/000000011544.png,experiment,i,i,682.5258011999977
1,22,Male,Right,143,Block 1,1.3781053999991855,0.025,true,banana,banana,occlusion,control,mask,partial viewing,many small,Stimulus\all_stim\occlusion\partialviewing\manysmall\control\manysmall_partialViewing_control_banana6.png,mask_img/000000033756.png,experiment,w,w,684.7183278000011
1,22,Male,Right,144,Block 1,0.868302599999879,0.025,true,person,person,occlusion,control,mask,partial viewing,few large,Stimulus\all_stim\occlusion\partialviewing\fewlarge\control\fewlarge_partialViewing_control_person10.png,mask_img/000000008469.png,experiment,q,q,793.6304269000029
1,22,Male,Right,145,Block 2,0.9231863000022713,0.025,false,firehydrant,tree,occlusion,high,mask,partial viewing,many small,Stimulus\all_stim\occlusion\partialviewing\manysmall\high\manysmall_partialViewing_high_firehydrant6.png,mask_img/000000050782.png,experiment,i,o,795.5426780999987
1,22,Male,Right,146,Block 2,0.9806803999963449,0.1,true,bird,bird,occlusion,high,mask,partial viewing,many small,Stimulus\all_stim\occlusion\partialviewing\manysmall\high\manysmall_partialViewing_high_bird9.png,mask_img/000000044946.png,experiment,e,e,797.5424618999969
1,22,Male,Right,147,Block 2,0.8056214999960503,0.025,true,person,person,occlusion,control,mask,partial viewing,few large,Stimulus\all_stim\occlusion\partialviewing\fewlarge\control\fewlarge_partialViewing_control_person5.png,mask_img/000000009286.png,experiment,q,q,799.1259705999983
1,22,Male,Right,148,Block 2,0.742126900004223,0.1,true,firehydrant,firehydrant,occlusion,control,mask,partial viewing,few large,Stimulus\all_stim\occlusion\partialviewing\fewlarge\control\fewlarge_partialViewing_control_firehydrant6.png,mask_img/000000008025.png,experiment,o,o,800.8299266999966
1,22,Male,Right,149,Block 2,0.844176000005973,0.025,true,bird,bird,occlusion,low,mask,partial viewing,few large,Stimulus\all_stim\occlusion\partialviewing\fewlarge\low\fewlarge_partialViewing_low_bird3.png,mask_img/000000024157.png,experiment,e,e,802.5578524000011
1,22,Male,Right,150,Block 2,1.7011104999983218,0.025,true,cat,cat,occlusion,high,mask,partial viewing,few large,Stimulus\all_stim\occlusion\partialviewing\fewlarge\high\fewlarge_partialViewing_high_cat7.png,mask_img/000000017580.png,experiment,u,u,805.0782546999981
1,22,Male,Right,151,Block 2,0.7888617999997223,0.05,true,building,building,occlusion,control,mask,partial viewing,many small,Stimulus\all_stim\occlusion\partialviewing\manysmall\control\manysmall_partialViewing_control_building1.png,mask_img/000000035818.png,experiment,p,p,806.781685599999
1,22,Male,Right,152,Block 2,0.8008212999993702,0.1,true,tree,tree,occlusion,control,mask,partial viewing,many small,Stimulus\all_stim\occlusion\partialviewing\manysmall\control\manysmall_partialViewing_control_tree8.png,mask_img/000000041577.png,experiment,i,i,808.4620766000007
1,22,Male,Right,153,Block 2,0.8158595000058995,0.05,true,bird,bird,occlusion,control,mask,partial viewing,few large,Stimulus\all_stim\occlusion\partialviewing\fewlarge\control\fewlarge_partialViewing_control_bird1.png,mask_img/000000000873.png,experiment,e,e,809.9660288000014
1,22,Male,Right,154,Block 2,0.7086178999961703,0.1,true,bus,bus,occlusion,low,mask,partial viewing,few large,Stimulus\all_stim\occlusion\partialviewing\fewlarge\low\fewlarge_partialViewing_low_bus8.png,mask_img/000000026782.png,experiment,r,r,811.4618985999987
1,22,Male,Right,155,Block 2,0.8675989999974263,0.05,true,bird,bird,occlusion,control,mask,partial viewing,few large,Stimulus\all_stim\occlusion\partialviewing\fewlarge\control\fewlarge_partialViewing_control_bird3.png,mask_img/000000001810.png,experiment,e,e,813.3900595000014
1,22,Male,Right,156,Block 2,1.3195112999965204,0.025,false,banana,cat,occlusion,high,mask,partial viewing,many small,Stimulus\all_stim\occlusion\partialviewing\manysmall\high\manysmall_partialViewing_high_banana7.png,mask_img/000000043024.png,experiment,u,w,815.8141707999966
1,22,Male,Right,157,Block 2,0.8427302999989479,0.1,true,banana,banana,occlusion,low,mask,partial viewing,few large,Stimulus\all_stim\occlusion\partialviewing\fewlarge\low\fewlarge_partialViewing_low_banana5.png,mask_img/000000023100.png,experiment,w,w,817.4944166999994
1,22,Male,Right,158,Block 2,0.9300611999933608,0.05,false,person,tree,occlusion,low,mask,partial viewing,many small,Stimulus\all_stim\occlusion\partialviewing\manysmall\low\manysmall_partialViewing_low_person3.png,mask_img/000000062128.png,experiment,i,q,819.2703907999967
1,22,Male,Right,159,Block 2,0.7251981000008527,0.1,true,building,building,occlusion,high,mask,partial viewing,few large,Stimulus\all_stim\occlusion\partialviewing\fewlarge\high\fewlarge_partialViewing_high_building6.png,mask_img/000000014774.png,experiment,p,p,820.7098515999969
1,22,Male,Right,160,Block 2,0.7737232999934349,0.025,true,bird,bird,occlusion,low,mask,partial viewing,many small,Stimulus\all_stim\occlusion\partialviewing\manysmall\low\manysmall_partialViewing_low_bird10.png,mask_img/000000055733.png,experiment,e,e,822.1656985000009
1,22,Male,Right,161,Block 2,0.7633946999994805,0.025,true,firehydrant,firehydrant,occlusion,high,mask,partial viewing,few large,Stimulus\all_stim\occlusion\partialviewing\fewlarge\high\fewlarge_partialViewing_high_firehydrant5.png,mask_img/000000018982.png,experiment,o,o,823.8461221000034
1,22,Male,Right,162,Block 2,1.0103158999991138,0.025,true,tree,tree,occlusion,low,mask,partial viewing,few large,Stimulus\all_stim\occlusion\partialviewing\fewlarge\low\fewlarge_partialViewing_low_tree10.png,mask_img/000000031454.png,experiment,i,i,825.5259043999977
1,22,Male,Right,163,Block 2,0.7196129000003566,0.025,true,bus,bus,occlusion,high,mask,partial viewing,many small,Stimulus\all_stim\occlusion\partialviewing\manysmall\high\manysmall_partialViewing_high_bus6.png,mask_img/000000047407.png,experiment,r,r,826.8940786000021
1,22,Male,Right,164,Block 2,0.8707396000027074,0.025,true,bus,bus,occlusion,control,mask,partial viewing,few large,Stimulus\all_stim\occlusion\partialviewing\fewlarge\control\fewlarge_partialViewing_control_bus6.png,mask_img/000000005862.png,experiment,r,r,828.7821866000013
1,22,Male,Right,165,Block 2,0.7480263000034029,0.1,true,person,person,occlusion,low,mask,partial viewing,many small,Stimulus\all_stim\occlusion\partialviewing\manysmall\low\manysmall_partialViewing_low_person1.png,mask_img/000000061780.png,experiment,q,q,830.3742343999984
1,22,Male,Right,166,Block 2,0.8094961999959196,0.05,true,firehydrant,firehydrant,occlusion,high,mask,partial viewing,few large,Stimulus\all_stim\occlusion\partialviewing\fewlarge\high\fewlarge_partialViewing_high_firehydrant7.png,mask_img/000000019463.png,experiment,o,o,832.2297394999987
1,22,Male,Right,167,Block 2,0.7111520999969798,0.025,true,bird,bird,occlusion,low,mask,partial viewing,few large,Stimulus\all_stim\occlusion\partialviewing\fewlarge\low\fewlarge_partialViewing_low_bird9.png,mask_img/000000024530.png,experiment,e,e,833.9183231999996
1,22,Male,Right,168,Block 2,0.7767431999964174,0.025,true,tree,tree,occlusion,control,mask,partial viewing,few large,Stimulus\all_stim\occlusion\partialviewing\fewlarge\control\fewlarge_partialViewing_control_tree1.png,mask_img/000000010281.png,experiment,i,i,835.7497768999965
1,22,Male,Right,169,Block 2,0.7148549999983516,0.025,true,bus,bus,occlusion,low,mask,partial viewing,few large,Stimulus\all_stim\occlusion\partialviewing\fewlarge\low\fewlarge_partialViewing_low_bus8.png,mask_img/000000026782.png,experiment,r,r,837.517966899999
1,22,Male,Right,170,Block 2,1.1918886999992537,0.05,true,tree,tree,occlusion,low,mask,partial viewing,many small,Stimulus\all_stim\occlusion\partialviewing\manysmall\low\manysmall_partialViewing_low_tree9.png,mask_img/000000063867.png,experiment,i,i,839.5340988000025
1,22,Male,Right,171,Block 2,0.9210803000023589,0.1,true,tree,tree,occlusion,low,mask,partial viewing,many small,Stimulus\all_stim\occlusion\partialviewing\manysmall\low\manysmall_partialViewing_low_tree2.png,mask_img/000000062875.png,experiment,i,i,841.3341158999974
1,22,Male,Right,172,Block 2,1.3527293000006466,0.1,false,cat,bus,occlusion,control,mask,partial viewing,few large,Stimulus\all_stim\occlusion\partialviewing\fewlarge\control\fewlarge_partialViewing_control_cat7.png,mask_img/000000007325.png,experiment,r,u,843.5258412999974
1,22,Male,Right,173,Block 2,0.7195094000053359,0.1,true,tree,tree,occlusion,control,mask,partial viewing,few large,Stimulus\all_stim\occlusion\partialviewing\fewlarge\control\fewlarge_partialViewing_control_tree1.png,mask_img/000000010281.png,experiment,i,i,845.030493899998
1,22,Male,Right,174,Block 2,0.6988474000027054,0.05,true,person,person,occlusion,low,mask,partial viewing,few large,Stimulus\all_stim\occlusion\partialviewing\fewlarge\low\fewlarge_partialViewing_low_person8.png,mask_img/000000030611.png,experiment,q,q,846.7419119999977
1,22,Male,Right,175,Block 2,1.2919314000027953,0.05,true,bird,bird,occlusion,low,mask,partial viewing,many small,Stimulus\all_stim\occlusion\partialviewing\manysmall\low\manysmall_partialViewing_low_bird1.png,mask_img/000000055694.png,experiment,e,e,848.7822440000018
1,22,Male,Right,176,Block 2,0.9868084999980056,0.025,true,bus,bus,occlusion,low,mask,partial viewing,few large,Stimulus\all_stim\occlusion\partialviewing\fewlarge\low\fewlarge_partialViewing_low_bus2.png,mask_img/000000025858.png,experiment,r,r,850.7181934999971
1,22,Male,Right,177,Block 2,0.8163254999963101,0.1,true,firehydrant,firehydrant,occlusion,high,mask,partial viewing,few large,Stimulus\all_stim\occlusion\partialviewing\fewlarge\high\fewlarge_partialViewing_high_firehydrant6.png,mask_img/000000019134.png,experiment,o,o,852.550562299999
1,22,Male,Right,178,Block 2,0.8578594999999041,0.1,true,tree,tree,occlusion,control,mask,partial viewing,few large,Stimulus\all_stim\occlusion\partialviewing\fewlarge\control\fewlarge_partialViewing_control_tree8.png,mask_img/000000011544.png,experiment,i,i,854.342061299998
1,22,Male,Right,179,Block 2,1.1688362999993842,0.1,true,banana,banana,occlusion,high,mask,partial viewing,few large,Stimulus\all_stim\occlusion\partialviewing\fewlarge\high\fewlarge_partialViewing_high_banana4.png,mask_img/000000012377.png,experiment,w,w,856.4541542000006
1,22,Male,Right,180,Block 2,0.693474800005788,0.1,true,person,person,occlusion,control,mask,partial viewing,few large,Stimulus\all_stim\occlusion\partialviewing\fewlarge\control\fewlarge_partialViewing_control_person1.png,mask_img/000000008341.png,experiment,q,q,857.9264490999994
1,22,Male,Right,181,Block 2,0.8330511000021943,0.025,true,firehydrant,firehydrant,occlusion,control,mask,partial viewing,few large,Stimulus\all_stim\occlusion\partialviewing\fewlarge\control\fewlarge_partialViewing_control_firehydrant8.png,mask_img/000000008193.png,experiment,o,o,859.5900142000028
1,22,Male,Right,182,Block 2,1.4972237000038149,0.1,false,cat,tree,occlusion,high,mask,partial viewing,few large,Stimulus\all_stim\occlusion\partialviewing\fewlarge\high\fewlarge_partialViewing_high_cat3.png,mask_img/000000017356.png,experiment,i,u,861.8380637000009
1,22,Male,Right,183,Block 2,0.7067996000041603,0.1,true,bus,bus,occlusion,control,mask,partial viewing,few large,Stimulus\all_stim\occlusion\partialviewing\fewlarge\control\fewlarge_partialViewing_control_bus1.png,mask_img/000000005142.png,experiment,r,r,863.6541701000024
1,22,Male,Right,184,Block 2,1.1767395000060787,0.1,true,building,building,occlusion,low,mask,partial viewing,few large,Stimulus\all_stim\occlusion\partialviewing\fewlarge\low\fewlarge_partialViewing_low_building1.png,mask_img/000000024552.png,experiment,p,p,865.726107399998
1,22,Male,Right,185,Block 2,0.9791058999981033,0.1,false,bird,tree,occlusion,high,mask,partial viewing,many small,Stimulus\all_stim\occlusion\partialviewing\manysmall\high\manysmall_partialViewing_high_bird6.png,mask_img/000000044523.png,experiment,i,e,867.6140805999967
1,22,Male,Right,186,Block 2,0.7914959000045201,0.1,true,bus,bus,occlusion,low,mask,partial viewing,many small,Stimulus\all_stim\occlusion\partialviewing\manysmall\low\manysmall_partialViewing_low_bus8.png,mask_img/000000058873.png,experiment,r,r,869.4138520999986
1,22,Male,Right,187,Block 2,0.8636246000023675,0.05,false,tree,firehydrant,occlusion,high,mask,partial viewing,few large,Stimulus\all_stim\occlusion\partialviewing\fewlarge\high\fewlarge_partialViewing_high_tree5.png,mask_img/000000022102.png,experiment,o,i,871.2059874999977
1,22,Male,Right,188,Block 2,0.80301419999887,0.025,true,banana,banana,occlusion,control,mask,partial viewing,many small,Stimulus\all_stim\occlusion\partialviewing\manysmall\control\manysmall_partialViewing_control_banana5.png,mask_img/000000033669.png,experiment,w,w,872.749699400003
1,22,Male,Right,189,Block 2,0.8230497999975341,0.025,true,banana,banana,occlusion,high,mask,partial viewing,few large,Stimulus\all_stim\occlusion\partialviewing\fewlarge\high\fewlarge_partialViewing_high_banana7.png,mask_img/000000012567.png,experiment,w,w,874.6300841999982
1,22,Male,Right,190,Block 2,0.9265668000007281,0.05,true,bird,bird,occlusion,low,mask,partial viewing,many small,Stimulus\all_stim\occlusion\partialviewing\manysmall\low\manysmall_partialViewing_low_bird5.png,mask_img/000000055942.png,experiment,e,e,876.5501693999977
1,22,Male,Right,191,Block 2,0.7295615999973961,0.1,true,firehydrant,firehydrant,occlusion,low,mask,partial viewing,few large,Stimulus\all_stim\occlusion\partialviewing\fewlarge\low\fewlarge_partialViewing_low_firehydrant3.png,mask_img/000000028518.png,experiment,o,o,877.9821955000007
1,22,Male,Right,192,Block 2,0.781132099997194,0.05,true,tree,tree,occlusion,low,mask,partial viewing,few large,Stimulus\all_stim\occlusion\partialviewing\fewlarge\low\fewlarge_partialViewing_low_tree6.png,mask_img/000000032720.png,experiment,i,i,879.6778785999995
1,22,Male,Right,193,Block 2,0.9785179999962565,0.05,false,person,tree,occlusion,high,mask,partial viewing,few large,Stimulus\all_stim\occlusion\partialviewing\fewlarge\high\fewlarge_partialViewing_high_person3.png,mask_img/000000020147.png,experiment,i,q,881.4536769999977
1,22,Male,Right,194,Block 2,1.9981772000028286,0.025,false,cat,firehydrant,occlusion,low,mask,partial viewing,few large,Stimulus\all_stim\occlusion\partialviewing\fewlarge\low\fewlarge_partialViewing_low_cat10.png,mask_img/000000027319.png,experiment,o,u,884.2625630999974
1,22,Male,Right,195,Block 2,1.0769753999993554,0.025,true,bird,bird,occlusion,control,mask,partial viewing,few large,Stimulus\all_stim\occlusion\partialviewing\fewlarge\control\fewlarge_partialViewing_control_bird1.png,mask_img/000000000873.png,experiment,e,e,886.4618887999968
1,22,Male,Right,196,Block 2,1.104684099998849,0.1,true,bird,bird,occlusion,low,mask,partial viewing,many small,Stimulus\all_stim\occlusion\partialviewing\manysmall\low\manysmall_partialViewing_low_bird9.png,mask_img/000000056641.png,experiment,e,e,888.5022224999993
1,22,Male,Right,197,Block 2,0.9098883000042406,0.1,true,cat,cat,occlusion,control,mask,partial viewing,many small,Stimulus\all_stim\occlusion\partialviewing\manysmall\control\manysmall_partialViewing_control_cat4.png,mask_img/000000038479.png,experiment,u,u,890.4055003999965
1,22,Male,Right,198,Block 2,0.745373900004779,0.05,true,firehydrant,firehydrant,occlusion,high,mask,partial viewing,few large,Stimulus\all_stim\occlusion\partialviewing\fewlarge\high\fewlarge_partialViewing_high_firehydrant6.png,mask_img/000000019134.png,experiment,o,o,892.206113799999
1,22,Male,Right,199,Block 2,0.7458805000060238,0.05,true,tree,tree,occlusion,low,mask,partial viewing,few large,Stimulus\all_stim\occlusion\partialviewing\fewlarge\low\fewlarge_partialViewing_low_tree4.png,mask_img/000000032364.png,experiment,i,i,893.8620364000017
1,22,Male,Right,200,Block 2,1.0033567000064068,0.1,true,bus,bus,occlusion,high,mask,partial viewing,few large,Stimulus\all_stim\occlusion\partialviewing\fewlarge\high\fewlarge_partialViewing_high_bus2.png,mask_img/000000015862.png,experiment,r,r,895.9661925000037
1,22,Male,Right,201,Block 2,0.7484333000029437,0.05,true,banana,banana,occlusion,low,mask,partial viewing,few large,Stimulus\all_stim\occlusion\partialviewing\fewlarge\low\fewlarge_partialViewing_low_banana3.png,mask_img/000000023004.png,experiment,w,w,897.3658082999973
1,22,Male,Right,202,Block 2,0.8564602999977069,0.1,true,banana,banana,occlusion,low,mask,partial viewing,few large,Stimulus\all_stim\occlusion\partialviewing\fewlarge\low\fewlarge_partialViewing_low_banana1.png,mask_img/000000022545.png,experiment,w,w,898.8782672000016
1,22,Male,Right,203,Block 2,0.7766144999986864,0.025,true,tree,tree,occlusion,high,mask,partial viewing,many small,Stimulus\all_stim\occlusion\partialviewing\manysmall\high\manysmall_partialViewing_high_tree1.png,mask_img/000000052784.png,experiment,i,i,900.389901100003
1,22,Male,Right,204,Block 2,1.5592126999981701,0.1,true,bus,bus,occlusion,high,mask,partial viewing,few large,Stimulus\all_stim\occlusion\partialviewing\fewlarge\high\fewlarge_partialViewing_high_bus10.png,mask_img/000000015733.png,experiment,r,r,902.6938152000002
1,22,Male,Right,205,Block 2,0.8356805000003078,0.1,true,tree,tree,occlusion,low,mask,partial viewing,many small,Stimulus\all_stim\occlusion\partialviewing\manysmall\low\manysmall_partialViewing_low_tree1.png,mask_img/000000062690.png,experiment,i,i,904.6060762999987
1,22,Male,Right,206,Block 2,0.7748796000014408,0.05,true,firehydrant,firehydrant,occlusion,control,mask,partial viewing,few large,Stimulus\all_stim\occlusion\partialviewing\fewlarge\control\fewlarge_partialViewing_control_firehydrant9.png,mask_img/000000008329.png,experiment,o,o,906.0621441999974
1,22,Male,Right,207,Block 2,0.6941733999992721,0.025,true,building,building,occlusion,low,mask,partial viewing,few large,Stimulus\all_stim\occlusion\partialviewing\fewlarge\low\fewlarge_partialViewing_low_building10.png,mask_img/000000024591.png,experiment,p,p,907.6059609000004
1,22,Male,Right,208,Block 2,0.8522560999990674,0.025,true,tree,tree,occlusion,high,mask,partial viewing,few large,Stimulus\all_stim\occlusion\partialviewing\fewlarge\high\fewlarge_partialViewing_high_tree7.png,mask_img/000000022256.png,experiment,i,i,909.5980711000011
1,22,Male,Right,209,Block 2,0.7954384999975446,0.025,true,bus,bus,occlusion,high,mask,partial viewing,few large,Stimulus\all_stim\occlusion\partialviewing\fewlarge\high\fewlarge_partialViewing_high_bus9.png,mask_img/000000016764.png,experiment,r,r,911.261923799997
1,22,Male,Right,210,Block 2,2.6894372000024305,0.025,false,bird,bus,occlusion,high,mask,partial viewing,few large,Stimulus\all_stim\occlusion\partialviewing\fewlarge\high\fewlarge_partialViewing_high_bird8.png,mask_img/000000014168.png,experiment,r,e,914.8300211000023
1,22,Male,Right,211,Block 2,1.0104681000011624,0.05,false,banana,tree,occlusion,high,mask,partial viewing,few large,Stimulus\all_stim\occlusion\partialviewing\fewlarge\high\fewlarge_partialViewing_high_banana6.png,mask_img/000000012548.png,experiment,i,w,916.8298884999967
1,22,Male,Right,212,Block 2,0.6855529000022216,0.05,true,tree,tree,occlusion,control,mask,partial viewing,many small,Stimulus\all_stim\occlusion\partialviewing\manysmall\control\manysmall_partialViewing_control_tree7.png,mask_img/000000041434.png,experiment,i,i,918.4537109000012
1,22,Male,Right,213,Block 2,0.7882590999943204,0.1,true,bus,bus,occlusion,low,mask,partial viewing,many small,Stimulus\all_stim\occlusion\partialviewing\manysmall\low\manysmall_partialViewing_low_bus9.png,mask_img/000000058910.png,experiment,r,r,920.3661722999968
1,22,Male,Right,214,Block 2,0.7218684000035864,0.1,true,bus,bus,occlusion,control,mask,partial viewing,few large,Stimulus\all_stim\occlusion\partialviewing\fewlarge\control\fewlarge_partialViewing_control_bus8.png,mask_img/000000006153.png,experiment,r,r,921.8785805000007
1,22,Male,Right,215,Block 2,0.803221999995003,0.025,true,banana,banana,occlusion,low,mask,partial viewing,many small,Stimulus\all_stim\occlusion\partialviewing\manysmall\low\manysmall_partialViewing_low_banana1.png,mask_img/000000054532.png,experiment,w,w,923.6939987000005
1,22,Male,Right,216,Block 2,1.2469782999978634,0.1,false,cat,tree,occlusion,low,mask,partial viewing,few large,Stimulus\all_stim\occlusion\partialviewing\fewlarge\low\fewlarge_partialViewing_low_cat4.png,mask_img/000000027675.png,experiment,i,u,925.7745406999966
1,22,Male,Right,217,Block 2,1.1144917999990867,0.025,false,bird,banana,occlusion,high,mask,partial viewing,few large,Stimulus\all_stim\occlusion\partialviewing\fewlarge\high\fewlarge_partialViewing_high_bird3.png,mask_img/000000013455.png,experiment,w,e,927.9581072000001
1,22,Male,Right,218,Block 2,1.4344576000003144,0.025,true,person,person,occlusion,high,mask,partial viewing,few large,Stimulus\all_stim\occlusion\partialviewing\fewlarge\high\fewlarge_partialViewing_high_person8.png,mask_img/000000020570.png,experiment,q,q,930.4064457999993
1,22,Male,Right,219,Block 2,1.2215437999984715,0.1,true,bird,bird,occlusion,control,mask,partial viewing,many small,Stimulus\all_stim\occlusion\partialviewing\manysmall\control\manysmall_partialViewing_control_bird1.png,mask_img/000000034113.png,experiment,e,e,932.470347399998
1,22,Male,Right,220,Block 2,0.9384633000008762,0.025,true,bird,bird,occlusion,high,mask,partial viewing,few large,Stimulus\all_stim\occlusion\partialviewing\fewlarge\high\fewlarge_partialViewing_high_bird4.png,mask_img/000000013721.png,experiment,e,e,934.0778224000023
1,22,Male,Right,221,Block 2,0.8295362999997451,0.1,true,tree,tree,occlusion,high,mask,partial viewing,many small,Stimulus\all_stim\occlusion\partialviewing\manysmall\high\manysmall_partialViewing_high_tree8.png,mask_img/000000054334.png,experiment,i,i,935.5819425000009
1,22,Male,Right,222,Block 2,1.2126693000027444,0.05,true,firehydrant,firehydrant,occlusion,control,mask,partial viewing,many small,Stimulus\all_stim\occlusion\partialviewing\manysmall\control\manysmall_partialViewing_control_firehydrant5.png,mask_img/000000039211.png,experiment,o,o,937.6862049999982
1,22,Male,Right,223,Block 2,0.7581260000006296,0.1,true,building,building,occlusion,control,mask,partial viewing,few large,Stimulus\all_stim\occlusion\partialviewing\fewlarge\control\fewlarge_partialViewing_control_building6.png,mask_img/000000004739.png,experiment,p,p,939.4160307999991
1,22,Male,Right,224,Block 2,1.0556867999985116,0.025,false,building,tree,occlusion,high,mask,partial viewing,many small,Stimulus\all_stim\occlusion\partialviewing\manysmall\high\manysmall_partialViewing_high_building1.png,mask_img/000000044950.png,experiment,i,p,941.2059118999969
1,22,Male,Right,225,Block 2,0.8143430999989505,0.05,true,firehydrant,firehydrant,occlusion,low,mask,partial viewing,few large,Stimulus\all_stim\occlusion\partialviewing\fewlarge\low\fewlarge_partialViewing_low_firehydrant8.png,mask_img/000000028988.png,experiment,o,o,943.037911899999
1,22,Male,Right,226,Block 2,1.0722030000033556,0.025,false,person,tree,occlusion,high,mask,partial viewing,many small,Stimulus\all_stim\occlusion\partialviewing\manysmall\high\manysmall_partialViewing_high_person9.png,mask_img/000000052619.png,experiment,i,q,945.1740586000014
1,22,Male,Right,227,Block 2,0.8325016000017058,0.025,true,firehydrant,firehydrant,occlusion,low,mask,partial viewing,many small,Stimulus\all_stim\occlusion\partialviewing\manysmall\low\manysmall_partialViewing_low_firehydrant5.png,mask_img/000000060623.png,experiment,o,o,946.8784970999986
1,22,Male,Right,228,Block 2,0.849570099999255,0.05,true,bus,bus,occlusion,control,mask,partial viewing,many small,Stimulus\all_stim\occlusion\partialviewing\manysmall\control\manysmall_partialViewing_control_bus9.png,mask_img/000000037864.png,experiment,r,r,948.6537457000013
1,22,Male,Right,229,Block 2,0.7300612000035471,0.025,true,person,person,occlusion,low,mask,partial viewing,many small,Stimulus\all_stim\occlusion\partialviewing\manysmall\low\manysmall_partialViewing_low_person4.png,mask_img/000000062131.png,experiment,q,q,950.5177951000005
1,22,Male,Right,230,Block 2,1.341717899995274,0.025,true,cat,cat,occlusion,control,mask,partial viewing,few large,Stimulus\all_stim\occlusion\partialviewing\fewlarge\control\fewlarge_partialViewing_control_cat2.png,mask_img/000000006489.png,experiment,u,u,952.8223781999986
1,22,Male,Right,231,Block 2,0.7923629999932018,0.1,true,building,building,occlusion,high,mask,partial viewing,many small,Stimulus\all_stim\occlusion\partialviewing\manysmall\high\manysmall_partialViewing_high_building6.png,mask_img/000000046155.png,experiment,p,p,954.4540951000017
1,22,Male,Right,232,Block 2,0.8239897000021301,0.025,true,firehydrant,firehydrant,occlusion,control,mask,partial viewing,many small,Stimulus\all_stim\occlusion\partialviewing\manysmall\control\manysmall_partialViewing_control_firehydrant4.png,mask_img/000000039141.png,experiment,o,o,956.2458141000025
1,22,Male,Right,233,Block 2,1.0546948999981396,0.05,true,firehydrant,firehydrant,occlusion,control,mask,partial viewing,many small,Stimulus\all_stim\occlusion\partialviewing\manysmall\control\manysmall_partialViewing_control_firehydrant8.png,mask_img/000000039553.png,experiment,o,o,958.254102400002
1,22,Male,Right,234,Block 2,0.9386478000014904,0.1,true,tree,tree,occlusion,control,mask,partial viewing,many small,Stimulus\all_stim\occlusion\partialviewing\manysmall\control\manysmall_partialViewing_control_tree5.png,mask_img/000000041174.png,experiment,i,i,960.1502451999986
1,22,Male,Right,235,Block 2,0.8908205000043381,0.1,false,banana,tree,occlusion,high,mask,partial viewing,few large,Stimulus\all_stim\occlusion\partialviewing\fewlarge\high\fewlarge_partialViewing_high_banana6.png,mask_img/000000012548.png,experiment,i,w,961.8298393000005
1,22,Male,Right,236,Block 2,1.353524699996342,0.025,true,bus,bus,occlusion,high,mask,partial viewing,few large,Stimulus\all_stim\occlusion\partialviewing\fewlarge\high\fewlarge_partialViewing_high_bus2.png,mask_img/000000015862.png,experiment,r,r,964.1424591000032
1,22,Male,Right,237,Block 2,1.4271656999990228,0.05,false,bird,bus,occlusion,control,mask,partial viewing,many small,Stimulus\all_stim\occlusion\partialviewing\manysmall\control\manysmall_partialViewing_control_bird10.png,mask_img/000000034304.png,experiment,r,e,966.4858569999997
1,22,Male,Right,238,Block 2,1.1744543000022531,0.025,true,bird,bird,occlusion,low,mask,partial viewing,few large,Stimulus\all_stim\occlusion\partialviewing\fewlarge\low\fewlarge_partialViewing_low_bird8.png,mask_img/000000024404.png,experiment,e,e,968.4618954000034
1,22,Male,Right,239,Block 2,0.8366126999972039,0.025,false,bird,tree,occlusion,high,mask,partial viewing,many small,Stimulus\all_stim\occlusion\partialviewing\manysmall\high\manysmall_partialViewing_high_bird4.png,mask_img/000000044136.png,experiment,i,e,970.1498088000008
1,22,Male,Right,240,Block 2,0.9145321000032709,0.1,true,banana,banana,occlusion,low,mask,partial viewing,many small,Stimulus\all_stim\occlusion\partialviewing\manysmall\low\manysmall_partialViewing_low_banana9.png,mask_img/000000055652.png,experiment,w,w,971.8699781999967
1,22,Male,Right,241,Block 2,0.9272584999998799,0.1,true,building,building,occlusion,control,mask,partial viewing,few large,Stimulus\all_stim\occlusion\partialviewing\fewlarge\control\fewlarge_partialViewing_control_building1.png,mask_img/000000003084.png,experiment,p,p,973.6318601000021
1,22,Male,Right,242,Block 2,1.5820160999937798,0.1,true,bus,bus,occlusion,low,mask,partial viewing,many small,Stimulus\all_stim\occlusion\partialviewing\manysmall\low\manysmall_partialViewing_low_bus6.png,mask_img/000000058815.png,experiment,r,r,976.2702004000021
1,22,Male,Right,243,Block 2,0.9612513000029139,0.1,true,bus,bus,occlusion,low,mask,partial viewing,many small,Stimulus\all_stim\occlusion\partialviewing\manysmall\low\manysmall_partialViewing_low_bus5.png,mask_img/000000058801.png,experiment,r,r,977.8940691000025
1,22,Male,Right,244,Block 2,0.9516006999983802,0.1,true,building,building,occlusion,control,mask,partial viewing,many small,Stimulus\all_stim\occlusion\partialviewing\manysmall\control\manysmall_partialViewing_control_building10.png,mask_img/000000035857.png,experiment,p,p,979.4941336999982
1,22,Male,Right,245,Block 2,1.0501124000002164,0.05,true,bus,bus,occlusion,low,mask,partial viewing,many small,Stimulus\all_stim\occlusion\partialviewing\manysmall\low\manysmall_partialViewing_low_bus10.png,mask_img/000000058595.png,experiment,r,r,981.3338023999968
1,22,Male,Right,246,Block 2,0.9089170999941416,0.1,true,building,building,occlusion,high,mask,partial viewing,many small,Stimulus\all_stim\occlusion\partialviewing\manysmall\high\manysmall_partialViewing_high_building7.png,mask_img/000000046171.png,experiment,p,p,983.2378382000024
1,22,Male,Right,247,Block 2,0.9451695000025211,0.025,true,tree,tree,occlusion,low,mask,partial viewing,many small,Stimulus\all_stim\occlusion\partialviewing\manysmall\low\manysmall_partialViewing_low_tree3.png,mask_img/000000063147.png,experiment,i,i,984.8942772000009
1,22,Male,Right,248,Block 2,0.8200629999992088,0.025,true,firehydrant,firehydrant,occlusion,control,mask,partial viewing,few large,Stimulus\all_stim\occlusion\partialviewing\fewlarge\control\fewlarge_partialViewing_control_firehydrant6.png,mask_img/000000008025.png,experiment,o,o,986.7418101000003
1,22,Male,Right,249,Block 2,1.4942093999998178,0.1,true,bird,bird,occlusion,high,mask,partial viewing,few large,Stimulus\all_stim\occlusion\partialviewing\fewlarge\high\fewlarge_partialViewing_high_bird1.png,mask_img/000000013061.png,experiment,e,e,989.1019149999993
1,22,Male,Right,250,Block 2,0.8970590000026277,0.05,true,banana,banana,occlusion,control,mask,partial viewing,few large,Stimulus\all_stim\occlusion\partialviewing\fewlarge\control\fewlarge_partialViewing_control_banana10.png,mask_img/000000000109.png,experiment,w,w,990.6782441999967
1,22,Male,Right,251,Block 2,0.8706937999959337,0.025,true,tree,tree,occlusion,high,mask,partial viewing,many small,Stimulus\all_stim\occlusion\partialviewing\manysmall\high\manysmall_partialViewing_high_tree5.png,mask_img/000000053410.png,experiment,i,i,992.494375299997
1,22,Male,Right,252,Block 2,1.4324956999989809,0.05,false,banana,tree,occlusion,high,mask,partial viewing,many small,Stimulus\all_stim\occlusion\partialviewing\manysmall\high\manysmall_partialViewing_high_banana6.png,mask_img/000000042704.png,experiment,i,w,995.0541628999999
1,22,Male,Right,253,Block 2,0.9203654999946593,0.05,true,person,person,occlusion,low,mask,partial viewing,many small,Stimulus\all_stim\occlusion\partialviewing\manysmall\low\manysmall_partialViewing_low_person9.png,mask_img/000000062427.png,experiment,q,q,996.718200299998
1,22,Male,Right,254,Block 2,1.1159467000034056,0.025,true,tree,tree,occlusion,control,mask,partial viewing,many small,Stimulus\all_stim\occlusion\partialviewing\manysmall\control\manysmall_partialViewing_control_tree3.png,mask_img/000000041014.png,experiment,i,i,998.7825022000034
1,22,Male,Right,255,Block 2,0.7728978999948595,0.05,true,tree,tree,occlusion,low,mask,partial viewing,many small,Stimulus\all_stim\occlusion\partialviewing\manysmall\low\manysmall_partialViewing_low_tree3.png,mask_img/000000063147.png,experiment,i,i,1000.4699266000025
1,22,Male,Right,256,Block 2,0.8826359000013326,0.025,true,bird,bird,occlusion,low,mask,partial viewing,few large,Stimulus\all_stim\occlusion\partialviewing\fewlarge\low\fewlarge_partialViewing_low_bird2.png,mask_img/000000024125.png,experiment,e,e,1002.4382277999975
1,22,Male,Right,257,Block 2,0.7349657999948249,0.025,true,person,person,occlusion,control,mask,partial viewing,few large,Stimulus\all_stim\occlusion\partialviewing\fewlarge\control\fewlarge_partialViewing_control_person7.png,mask_img/000000009648.png,experiment,q,q,1003.9984406000003
1,22,Male,Right,258,Block 2,0.7299244999958319,0.05,true,banana,banana,occlusion,control,mask,partial viewing,many small,Stimulus\all_stim\occlusion\partialviewing\manysmall\control\manysmall_partialViewing_control_banana10.png,mask_img/000000033074.png,experiment,w,w,1005.6378160000022
1,22,Male,Right,259,Block 2,1.1121443999945768,0.05,true,person,person,occlusion,low,mask,partial viewing,few large,Stimulus\all_stim\occlusion\partialviewing\fewlarge\low\fewlarge_partialViewing_low_person2.png,mask_img/000000029274.png,experiment,q,q,1007.5579016999982
1,22,Male,Right,260,Block 2,0.8594980999987456,0.1,true,bus,bus,occlusion,low,mask,partial viewing,many small,Stimulus\all_stim\occlusion\partialviewing\manysmall\low\manysmall_partialViewing_low_bus3.png,mask_img/000000058647.png,experiment,r,r,1009.4300499000019
1,22,Male,Right,261,Block 2,1.3563520000025164,0.1,false,bird,tree,occlusion,control,mask,partial viewing,many small,Stimulus\all_stim\occlusion\partialviewing\manysmall\control\manysmall_partialViewing_control_bird10.png,mask_img/000000034304.png,experiment,i,e,1011.7264665999974
1,22,Male,Right,262,Block 2,0.8360589000003529,0.05,false,firehydrant,person,occlusion,high,mask,partial viewing,few large,Stimulus\all_stim\occlusion\partialviewing\fewlarge\high\fewlarge_partialViewing_high_firehydrant1.png,mask_img/000000017944.png,experiment,q,o,1013.4946149000025
1,22,Male,Right,263,Block 2,1.05118969999603,0.1,true,bus,bus,occlusion,control,mask,partial viewing,few large,Stimulus\all_stim\occlusion\partialviewing\fewlarge\control\fewlarge_partialViewing_control_bus9.png,mask_img/000000006263.png,experiment,r,r,1015.4303784000003
1,22,Male,Right,264,Block 2,0.7594193999975687,0.1,true,tree,tree,occlusion,low,mask,partial viewing,few large,Stimulus\all_stim\occlusion\partialviewing\fewlarge\low\fewlarge_partialViewing_low_tree3.png,mask_img/000000031717.png,experiment,i,i,1017.1100576000026
1,22,Male,Right,265,Block 2,0.758695099997567,0.1,true,banana,banana,occlusion,high,mask,partial viewing,few large,Stimulus\all_stim\occlusion\partialviewing\fewlarge\high\fewlarge_partialViewing_high_banana10.png,mask_img/000000012178.png,experiment,w,w,1018.7823513999974
1,22,Male,Right,266,Block 2,0.9391269999978249,0.1,false,person,tree,occlusion,high,mask,partial viewing,many small,Stimulus\all_stim\occlusion\partialviewing\manysmall\high\manysmall_partialViewing_high_person6.png,mask_img/000000052426.png,experiment,i,q,1020.6627965000007
