pt_num,Age,Gender,Handedness,trial_nbr,block_number,rt,soa,acc,category,choiced_category,manipulation,difficulty,mask,type_occl,size_occl,filename,mask_filename,task,pressed_key,correct_key,Experiment Duration
4,19,Male,Right,1,Training,2.3294102999934694,0.05,true,firehydrant,firehydrant,occlusion,control,mask,partial viewing,many small,Training_Stimulus\manysmall_partialViewing_control_firehydrant154.png,mask_img/000000005131.png,training,e,e,273.58861649999744
4,19,Male,Right,2,Training,3.340282900011516,0.1,true,bird,bird,occlusion,control,mask,partial viewing,few large,Training_Stimulus\fewlarge_partialViewing_control_bird394.png,mask_img/000000000109.png,training,p,p,277.99829339999997
4,19,Male,Right,3,Training,2.4890396000118926,0.025,true,bus,bus,occlusion,control,mask,partial viewing,many small,Training_Stimulus\manysmall_partialViewing_control_bus630.png,mask_img/000000004936.png,training,w,w,281.89764039999864
4,19,Male,Right,4,Training,9.162995699996827,0.025,false,firehydrant,banana,occlusion,low,mask,partial viewing,many small,Training_Stimulus\manysmall_partialViewing_low_firehydrant205.png,mask_img/000000006870.png,training,u,e,292.13481709999905
4,19,Male,Right,5,Training,2.5164393999875756,0.025,false,firehydrant,tree,occlusion,high,mask,partial viewing,many small,Training_Stimulus\manysmall_partialViewing_high_firehydrant90.png,mask_img/000000006146.png,training,q,e,295.93902649999654
4,19,Male,Right,6,Training,1.3081443999981275,0.025,true,tree,tree,occlusion,control,mask,partial viewing,few large,Training_Stimulus\fewlarge_partialViewing_control_tree17.png,mask_img/000000000626.png,training,q,q,298.6589835999912
4,19,Male,Right,7,Training,3.153141200004029,0.025,false,person,cat,occlusion,control,mask,partial viewing,few large,Training_Stimulus\fewlarge_partialViewing_control_person475.png,mask_img/000000000595.png,training,o,i,303.3363357000053
4,19,Male,Right,8,Training,2.1197718999901554,0.1,true,cat,cat,occlusion,control,mask,partial viewing,many small,Training_Stimulus\manysmall_partialViewing_control_cat511.png,mask_img/000000005105.png,training,o,o,306.85903779999353
4,19,Male,Right,9,Training,2.9272945999982767,0.1,false,firehydrant,cat,occlusion,high,mask,partial viewing,few large,Training_Stimulus\fewlarge_partialViewing_high_firehydrant90.png,mask_img/000000001810.png,training,o,e,311.18050400000357
4,19,Male,Right,10,Training,1.7566828999988502,0.025,false,bus,firehydrant,occlusion,low,mask,partial viewing,many small,Training_Stimulus\manysmall_partialViewing_low_bus630.png,mask_img/000000006709.png,training,e,w,314.14059209999687
4,19,Male,Right,11,Training,2.6756922000058694,0.025,false,bird,person,occlusion,low,mask,partial viewing,many small,Training_Stimulus\manysmall_partialViewing_low_bird394.png,mask_img/000000006481.png,training,i,p,318.2355272999994
4,19,Male,Right,12,Training,1.7092803999985335,0.025,true,firehydrant,firehydrant,occlusion,low,mask,partial viewing,few large,Training_Stimulus\fewlarge_partialViewing_low_firehydrant205.png,mask_img/000000003225.png,training,e,e,321.31365959999675
4,19,Male,Right,13,Training,2.4902115000004414,0.05,true,person,person,occlusion,control,mask,partial viewing,few large,Training_Stimulus\fewlarge_partialViewing_control_person475.png,mask_img/000000000595.png,training,i,i,325.01818549999734
4,19,Male,Right,14,Training,2.9537421999993967,0.05,false,firehydrant,cat,occlusion,high,mask,partial viewing,many small,Training_Stimulus\manysmall_partialViewing_high_firehydrant90.png,mask_img/000000006146.png,training,o,e,329.0528420000046
4,19,Male,Right,15,Training,3.613912100001471,0.025,true,person,person,occlusion,low,mask,partial viewing,few large,Training_Stimulus\fewlarge_partialViewing_low_person587.png,mask_img/000000003483.png,training,i,i,334.14031160000013
4,19,Male,Right,16,Training,3.028649400002905,0.1,true,building,building,occlusion,control,mask,partial viewing,few large,Training_Stimulus\fewlarge_partialViewing_control_building48.png,mask_img/000000000312.png,training,r,r,338.2262169000023
4,19,Male,Right,17,Training,3.790745499994955,0.1,true,person,person,occlusion,low,mask,partial viewing,few large,Training_Stimulus\fewlarge_partialViewing_low_person587.png,mask_img/000000003483.png,training,i,i,343.46479869999166
4,19,Male,Right,18,Training,2.7833161000016844,0.025,true,bus,bus,occlusion,control,mask,partial viewing,few large,Training_Stimulus\fewlarge_partialViewing_control_bus630.png,mask_img/000000000394.png,training,w,w,347.76327799999854
4,19,Male,Right,19,Training,3.333585900007165,0.025,true,banana,banana,occlusion,control,mask,partial viewing,many small,Training_Stimulus\manysmall_partialViewing_control_banana1022.png,mask_img/000000004239.png,training,u,u,352.59262820000004
4,19,Male,Right,20,Training,3.5141543000063393,0.05,false,person,bus,occlusion,high,mask,partial viewing,many small,Training_Stimulus\manysmall_partialViewing_high_person475.png,mask_img/000000006153.png,training,w,i,357.18870489999244
4,19,Male,Right,21,Training,3.093533999999636,0.05,false,cat,banana,occlusion,high,mask,partial viewing,many small,Training_Stimulus\manysmall_partialViewing_high_cat511.png,mask_img/000000005862.png,training,u,o,361.3462683999969
4,19,Male,Right,22,Training,1.2772237000026507,0.05,true,tree,tree,occlusion,control,mask,partial viewing,few large,Training_Stimulus\fewlarge_partialViewing_control_tree17.png,mask_img/000000000626.png,training,q,q,364.03369589999784
4,19,Male,Right,23,Training,1.6484963999973843,0.025,false,cat,tree,occlusion,low,mask,partial viewing,many small,Training_Stimulus\manysmall_partialViewing_low_cat593.png,mask_img/000000006842.png,training,q,o,366.81727279999177
4,19,Male,Right,24,Training,2.4395529000030365,0.05,true,firehydrant,firehydrant,occlusion,low,mask,partial viewing,many small,Training_Stimulus\manysmall_partialViewing_low_firehydrant205.png,mask_img/000000006870.png,training,e,e,370.45939720000024
4,19,Male,Right,25,Training,3.061976400000276,0.05,true,bird,bird,occlusion,control,mask,partial viewing,many small,Training_Stimulus\manysmall_partialViewing_control_bird394.png,mask_img/000000004642.png,training,p,p,374.5710801999958
4,19,Male,Right,26,Training,4.027329100004863,0.1,true,cat,cat,occlusion,control,mask,partial viewing,few large,Training_Stimulus\fewlarge_partialViewing_control_cat511.png,mask_img/000000000438.png,training,o,o,380.0414405000047
4,19,Male,Right,27,Training,5.783465899992734,0.1,false,building,cat,occlusion,high,mask,partial viewing,many small,Training_Stimulus\manysmall_partialViewing_high_building48.png,mask_img/000000005574.png,training,o,r,387.0278799999942
4,19,Male,Right,28,Training,2.1832069999945816,0.05,false,building,cat,occlusion,high,mask,partial viewing,many small,Training_Stimulus\manysmall_partialViewing_high_building48.png,mask_img/000000005574.png,training,o,r,390.6011026999913
4,19,Male,Right,29,Training,1.3474047999916365,0.05,false,bird,banana,occlusion,high,mask,partial viewing,many small,Training_Stimulus\manysmall_partialViewing_high_bird1073.png,mask_img/000000005418.png,training,u,p,393.21916160000546
4,19,Male,Right,30,Training,2.4971274999988964,0.1,true,bird,bird,occlusion,high,mask,partial viewing,few large,Training_Stimulus\fewlarge_partialViewing_high_bird394.png,mask_img/000000000731.png,training,p,p,396.96916619999683
4,19,Male,Right,31,Training,3.3098104000091553,0.1,false,cat,banana,occlusion,high,mask,partial viewing,many small,Training_Stimulus\manysmall_partialViewing_high_cat511.png,mask_img/000000005862.png,training,u,o,401.3634119000053
4,19,Male,Right,32,Training,1.4371608999936143,0.025,false,tree,bus,occlusion,high,mask,partial viewing,few large,Training_Stimulus\fewlarge_partialViewing_high_tree25.png,mask_img/000000002197.png,training,w,q,404.2084501999925
4,19,Male,Right,33,Training,2.7112625000008848,0.1,true,banana,banana,occlusion,control,mask,partial viewing,many small,Training_Stimulus\manysmall_partialViewing_control_banana1022.png,mask_img/000000004239.png,training,u,u,408.29032919999736
4,19,Male,Right,34,Training,9.761541200001375,0.1,true,banana,banana,occlusion,high,mask,partial viewing,many small,Training_Stimulus\manysmall_partialViewing_high_banana589.png,mask_img/000000005359.png,training,u,u,419.41528069999185
4,19,Male,Right,35,Training,1.734614999993937,0.1,false,tree,bird,occlusion,high,mask,partial viewing,few large,Training_Stimulus\fewlarge_partialViewing_high_tree25.png,mask_img/000000002197.png,training,p,q,422.6230257999996
4,19,Male,Right,36,Training,2.149969600010081,0.1,true,firehydrant,firehydrant,occlusion,control,mask,partial viewing,many small,Training_Stimulus\manysmall_partialViewing_control_firehydrant154.png,mask_img/000000005131.png,training,e,e,425.8606279999949
4,19,Male,Right,37,Training,3.0921985000022687,0.1,true,person,person,occlusion,control,mask,partial viewing,few large,Training_Stimulus\fewlarge_partialViewing_control_person475.png,mask_img/000000000595.png,training,i,i,430.04879380000057
4,19,Male,Right,38,Training,4.146592099990812,0.05,true,person,person,occlusion,low,mask,partial viewing,many small,Training_Stimulus\manysmall_partialViewing_low_person587.png,mask_img/000000007179.png,training,i,i,435.65090140000393
4,19,Male,Right,39,Training,2.4298657000035746,0.1,true,bus,bus,occlusion,high,mask,partial viewing,few large,Training_Stimulus\fewlarge_partialViewing_high_bus929.png,mask_img/000000001053.png,training,w,w,439.2929745000001
4,19,Male,Right,40,Training,2.9632056999980705,0.1,true,bird,bird,occlusion,low,mask,partial viewing,few large,Training_Stimulus\fewlarge_partialViewing_low_bird1073.png,mask_img/000000002774.png,training,p,p,443.7463429000054
4,19,Male,Right,41,Training,2.5055794000072638,0.025,true,banana,banana,occlusion,control,mask,partial viewing,few large,Training_Stimulus\fewlarge_partialViewing_control_banana589.png,mask_img/000000000042.png,training,u,u,447.5731409
4,19,Male,Right,42,Training,1.4052248999942094,0.05,true,banana,banana,occlusion,low,mask,partial viewing,many small,Training_Stimulus\manysmall_partialViewing_low_banana589.png,mask_img/000000006437.png,training,u,u,450.21115879999707
4,19,Male,Right,43,Training,1.6356888000009349,0.025,true,bus,bus,occlusion,high,mask,partial viewing,few large,Training_Stimulus\fewlarge_partialViewing_high_bus929.png,mask_img/000000001053.png,training,w,w,453.10742949999985
4,19,Male,Right,1,Block 1,1.5489024999988033,0.05,true,bus,bus,occlusion,high,mask,partial viewing,few large,Stimulus\all_stim\occlusion\partialviewing\fewlarge\high\fewlarge_partialViewing_high_bus10.png,mask_img/000000015733.png,experiment,w,w,480.4558512999938
4,19,Male,Right,2,Block 1,1.8431497999990825,0.025,true,bird,bird,occlusion,control,mask,partial viewing,few large,Stimulus\all_stim\occlusion\partialviewing\fewlarge\control\fewlarge_partialViewing_control_bird1.png,mask_img/000000000873.png,experiment,p,p,483.1275711000053
4,19,Male,Right,3,Block 1,1.3214870000083465,0.025,true,bird,bird,occlusion,high,mask,partial viewing,few large,Stimulus\all_stim\occlusion\partialviewing\fewlarge\high\fewlarge_partialViewing_high_bird10.png,mask_img/000000013127.png,experiment,p,p,485.2319603999931
4,19,Male,Right,4,Block 1,2.9347953000105917,0.05,true,building,building,occlusion,control,mask,partial viewing,few large,Stimulus\all_stim\occlusion\partialviewing\fewlarge\control\fewlarge_partialViewing_control_building4.png,mask_img/000000004239.png,experiment,r,r,488.9439030999929
4,19,Male,Right,5,Block 1,1.7550683000008576,0.1,true,bird,bird,occlusion,high,mask,partial viewing,few large,Stimulus\all_stim\occlusion\partialviewing\fewlarge\high\fewlarge_partialViewing_high_bird2.png,mask_img/000000013169.png,experiment,p,p,491.77602049999405
4,19,Male,Right,6,Block 1,2.2755564999970375,0.05,true,firehydrant,firehydrant,occlusion,control,mask,partial viewing,few large,Stimulus\all_stim\occlusion\partialviewing\fewlarge\control\fewlarge_partialViewing_control_firehydrant6.png,mask_img/000000008025.png,experiment,e,e,495.0083325000014
4,19,Male,Right,7,Block 1,1.922656199996709,0.1,true,bus,bus,occlusion,low,mask,partial viewing,many small,Stimulus\all_stim\occlusion\partialviewing\manysmall\low\manysmall_partialViewing_low_bus7.png,mask_img/000000058822.png,experiment,w,w,497.8079424000025
4,19,Male,Right,8,Block 1,1.7231596000056015,0.1,false,person,bird,occlusion,low,mask,partial viewing,many small,Stimulus\all_stim\occlusion\partialviewing\manysmall\low\manysmall_partialViewing_low_person1.png,mask_img/000000061780.png,experiment,p,i,500.50399749999633
4,19,Male,Right,9,Block 1,2.493897200009087,0.1,true,building,building,occlusion,low,mask,partial viewing,few large,Stimulus\all_stim\occlusion\partialviewing\fewlarge\low\fewlarge_partialViewing_low_building6.png,mask_img/000000025143.png,experiment,r,r,504.1120760000049
4,19,Male,Right,10,Block 1,1.5869644999911543,0.1,false,tree,bird,occlusion,high,mask,partial viewing,many small,Stimulus\all_stim\occlusion\partialviewing\manysmall\high\manysmall_partialViewing_high_tree7.png,mask_img/000000053635.png,experiment,p,q,506.5117451999977
4,19,Male,Right,11,Block 1,1.5697254000115208,0.05,false,banana,bird,occlusion,high,mask,partial viewing,few large,Stimulus\all_stim\occlusion\partialviewing\fewlarge\high\fewlarge_partialViewing_high_banana9.png,mask_img/000000012999.png,experiment,p,u,509.0798061999958
4,19,Male,Right,12,Block 1,2.4314965000085067,0.1,true,person,person,occlusion,control,mask,partial viewing,few large,Stimulus\all_stim\occlusion\partialviewing\fewlarge\control\fewlarge_partialViewing_control_person5.png,mask_img/000000009286.png,experiment,i,i,512.6155449999933
4,19,Male,Right,13,Block 1,1.8533537999901455,0.1,true,bus,bus,occlusion,low,mask,partial viewing,few large,Stimulus\all_stim\occlusion\partialviewing\fewlarge\low\fewlarge_partialViewing_low_bus3.png,mask_img/000000025997.png,experiment,w,w,515.1279594999942
4,19,Male,Right,14,Block 1,2.0793723999959184,0.05,true,banana,banana,occlusion,control,mask,partial viewing,many small,Stimulus\all_stim\occlusion\partialviewing\manysmall\control\manysmall_partialViewing_control_banana1.png,mask_img/000000033073.png,experiment,u,u,517.9197124999919
4,19,Male,Right,15,Block 1,2.0206830000097398,0.025,true,building,building,occlusion,high,mask,partial viewing,many small,Stimulus\all_stim\occlusion\partialviewing\manysmall\high\manysmall_partialViewing_high_building7.png,mask_img/000000046171.png,experiment,r,r,520.6239196999959
4,19,Male,Right,16,Block 1,2.294999799996731,0.1,true,person,person,occlusion,high,mask,partial viewing,few large,Stimulus\all_stim\occlusion\partialviewing\fewlarge\high\fewlarge_partialViewing_high_person10.png,mask_img/000000019927.png,experiment,i,i,523.7678541999921
4,19,Male,Right,17,Block 1,2.5603865000011865,0.05,false,building,bus,occlusion,high,mask,partial viewing,many small,Stimulus\all_stim\occlusion\partialviewing\manysmall\high\manysmall_partialViewing_high_building1.png,mask_img/000000044950.png,experiment,w,r,527.3927842999983
4,19,Male,Right,18,Block 1,4.609350900005666,0.1,true,tree,tree,occlusion,low,mask,partial viewing,many small,Stimulus\all_stim\occlusion\partialviewing\manysmall\low\manysmall_partialViewing_low_tree8.png,mask_img/000000063804.png,experiment,q,q,532.8077161999972
4,19,Male,Right,19,Block 1,2.558433900005184,0.05,true,banana,banana,occlusion,control,mask,partial viewing,few large,Stimulus\all_stim\occlusion\partialviewing\fewlarge\control\fewlarge_partialViewing_control_banana7.png,mask_img/000000000626.png,experiment,u,u,536.0876448999916
4,19,Male,Right,20,Block 1,1.2423557000001892,0.025,false,cat,bird,occlusion,high,mask,partial viewing,few large,Stimulus\all_stim\occlusion\partialviewing\fewlarge\high\fewlarge_partialViewing_high_cat9.png,mask_img/000000017858.png,experiment,p,o,538.2319411999924
4,19,Male,Right,21,Block 1,1.048604700001306,0.1,true,bird,bird,occlusion,control,mask,partial viewing,many small,Stimulus\all_stim\occlusion\partialviewing\manysmall\control\manysmall_partialViewing_control_bird4.png,mask_img/000000034691.png,experiment,p,p,540.3685393000051
4,19,Male,Right,22,Block 1,2.003118499997072,0.1,true,banana,banana,occlusion,low,mask,partial viewing,few large,Stimulus\all_stim\occlusion\partialviewing\fewlarge\low\fewlarge_partialViewing_low_banana1.png,mask_img/000000022545.png,experiment,u,u,543.4403323000006
4,19,Male,Right,23,Block 1,1.3877535000065109,0.05,true,bird,bird,occlusion,control,mask,partial viewing,few large,Stimulus\all_stim\occlusion\partialviewing\fewlarge\control\fewlarge_partialViewing_control_bird6.png,mask_img/000000002337.png,experiment,p,p,545.9362872000056
4,19,Male,Right,24,Block 1,2.0087427999969805,0.025,true,person,person,occlusion,control,mask,partial viewing,many small,Stimulus\all_stim\occlusion\partialviewing\manysmall\control\manysmall_partialViewing_control_person3.png,mask_img/000000040008.png,experiment,i,i,548.8722243999946
4,19,Male,Right,25,Block 1,1.6651739000080852,0.1,true,tree,tree,occlusion,control,mask,partial viewing,many small,Stimulus\all_stim\occlusion\partialviewing\manysmall\control\manysmall_partialViewing_control_tree5.png,mask_img/000000041174.png,experiment,q,q,551.5839640999911
4,19,Male,Right,26,Block 1,1.278940700009116,0.1,true,bird,bird,occlusion,low,mask,partial viewing,few large,Stimulus\all_stim\occlusion\partialviewing\fewlarge\low\fewlarge_partialViewing_low_bird2.png,mask_img/000000024125.png,experiment,p,p,553.9764072999969
4,19,Male,Right,27,Block 1,1.7741291999991518,0.025,false,building,bus,occlusion,high,mask,partial viewing,many small,Stimulus\all_stim\occlusion\partialviewing\manysmall\high\manysmall_partialViewing_high_building4.png,mask_img/000000046025.png,experiment,w,r,556.5441288000002
4,19,Male,Right,28,Block 1,1.040321499996935,0.05,true,tree,tree,occlusion,low,mask,partial viewing,few large,Stimulus\all_stim\occlusion\partialviewing\fewlarge\low\fewlarge_partialViewing_low_tree8.png,mask_img/000000032918.png,experiment,q,q,558.2963884000055
4,19,Male,Right,29,Block 1,0.9256096000026446,0.05,true,tree,tree,occlusion,low,mask,partial viewing,many small,Stimulus\all_stim\occlusion\partialviewing\manysmall\low\manysmall_partialViewing_low_tree2.png,mask_img/000000062875.png,experiment,q,q,560.1525867000018
4,19,Male,Right,30,Block 1,0.8477597000019159,0.025,true,tree,tree,occlusion,control,mask,partial viewing,many small,Stimulus\all_stim\occlusion\partialviewing\manysmall\control\manysmall_partialViewing_control_tree8.png,mask_img/000000041577.png,experiment,q,q,561.9040302999929
4,19,Male,Right,31,Block 1,1.1987571000063326,0.025,true,tree,tree,occlusion,control,mask,partial viewing,few large,Stimulus\all_stim\occlusion\partialviewing\fewlarge\control\fewlarge_partialViewing_control_tree1.png,mask_img/000000010281.png,experiment,q,q,564.1757543999993
4,19,Male,Right,32,Block 1,1.4043242000043392,0.025,false,firehydrant,bird,occlusion,high,mask,partial viewing,few large,Stimulus\all_stim\occlusion\partialviewing\fewlarge\high\fewlarge_partialViewing_high_firehydrant1.png,mask_img/000000017944.png,experiment,p,e,566.3994818999927
4,19,Male,Right,33,Block 1,1.956268399997498,0.1,true,person,person,occlusion,low,mask,partial viewing,few large,Stimulus\all_stim\occlusion\partialviewing\fewlarge\low\fewlarge_partialViewing_low_person5.png,mask_img/000000029964.png,experiment,i,i,569.4477616999939
4,19,Male,Right,34,Block 1,2.4939454999985173,0.025,true,cat,cat,occlusion,high,mask,partial viewing,few large,Stimulus\all_stim\occlusion\partialviewing\fewlarge\high\fewlarge_partialViewing_high_cat6.png,mask_img/000000017476.png,experiment,o,o,572.6482550999935
4,19,Male,Right,35,Block 1,1.959119400009513,0.05,true,cat,cat,occlusion,control,mask,partial viewing,many small,Stimulus\all_stim\occlusion\partialviewing\manysmall\control\manysmall_partialViewing_control_cat6.png,mask_img/000000038753.png,experiment,o,o,575.6637772999966
4,19,Male,Right,36,Block 1,1.2146307999937562,0.1,true,tree,tree,occlusion,high,mask,partial viewing,few large,Stimulus\all_stim\occlusion\partialviewing\fewlarge\high\fewlarge_partialViewing_high_tree8.png,mask_img/000000022355.png,experiment,q,q,577.5919931999961
4,19,Male,Right,37,Block 1,1.8864181999961147,0.05,true,banana,banana,occlusion,control,mask,partial viewing,many small,Stimulus\all_stim\occlusion\partialviewing\manysmall\control\manysmall_partialViewing_control_banana6.png,mask_img/000000033756.png,experiment,u,u,580.1999340000039
4,19,Male,Right,38,Block 1,1.493335000006482,0.05,true,bus,bus,occlusion,control,mask,partial viewing,few large,Stimulus\all_stim\occlusion\partialviewing\fewlarge\control\fewlarge_partialViewing_control_bus4.png,mask_img/000000005574.png,experiment,w,w,582.584525600003
4,19,Male,Right,39,Block 1,1.1120200000004843,0.025,true,bird,bird,occlusion,low,mask,partial viewing,many small,Stimulus\all_stim\occlusion\partialviewing\manysmall\low\manysmall_partialViewing_low_bird4.png,mask_img/000000055859.png,experiment,p,p,584.7684167999978
4,19,Male,Right,40,Block 1,1.6461407000024337,0.05,true,building,building,occlusion,high,mask,partial viewing,many small,Stimulus\all_stim\occlusion\partialviewing\manysmall\high\manysmall_partialViewing_high_building7.png,mask_img/000000046171.png,experiment,r,r,587.256372399992
4,19,Male,Right,41,Block 1,1.3522566000028746,0.025,false,cat,tree,occlusion,low,mask,partial viewing,few large,Stimulus\all_stim\occlusion\partialviewing\fewlarge\low\fewlarge_partialViewing_low_cat10.png,mask_img/000000027319.png,experiment,q,o,589.4956252999982
4,19,Male,Right,42,Block 1,1.7678073999995831,0.025,true,banana,banana,occlusion,high,mask,partial viewing,many small,Stimulus\all_stim\occlusion\partialviewing\manysmall\high\manysmall_partialViewing_high_banana7.png,mask_img/000000043024.png,experiment,u,u,592.2082380999927
4,19,Male,Right,43,Block 1,1.0998343999963254,0.1,true,bird,bird,occlusion,control,mask,partial viewing,few large,Stimulus\all_stim\occlusion\partialviewing\fewlarge\control\fewlarge_partialViewing_control_bird6.png,mask_img/000000002337.png,experiment,p,p,594.0081439999922
4,19,Male,Right,44,Block 1,0.9212625999934971,0.05,true,tree,tree,occlusion,high,mask,partial viewing,few large,Stimulus\all_stim\occlusion\partialviewing\fewlarge\high\fewlarge_partialViewing_high_tree2.png,mask_img/000000021641.png,experiment,q,q,596.040219699993
4,19,Male,Right,45,Block 1,1.1257093000021996,0.05,false,person,tree,occlusion,high,mask,partial viewing,many small,Stimulus\all_stim\occlusion\partialviewing\manysmall\high\manysmall_partialViewing_high_person7.png,mask_img/000000052562.png,experiment,q,i,598.1596243999957
4,19,Male,Right,46,Block 1,1.711916400003247,0.1,true,person,person,occlusion,control,mask,partial viewing,few large,Stimulus\all_stim\occlusion\partialviewing\fewlarge\control\fewlarge_partialViewing_control_person1.png,mask_img/000000008341.png,experiment,i,i,600.9040474999929
4,19,Male,Right,47,Block 1,0.9257470000011381,0.1,true,tree,tree,occlusion,low,mask,partial viewing,few large,Stimulus\all_stim\occlusion\partialviewing\fewlarge\low\fewlarge_partialViewing_low_tree7.png,mask_img/000000032906.png,experiment,q,q,602.7124120999943
4,19,Male,Right,48,Block 1,1.4445343999977922,0.025,false,firehydrant,building,occlusion,control,mask,partial viewing,many small,Stimulus\all_stim\occlusion\partialviewing\manysmall\control\manysmall_partialViewing_control_firehydrant7.png,mask_img/000000039475.png,experiment,r,e,604.8249215999967
4,19,Male,Right,49,Block 1,2.0105783000035444,0.1,true,building,building,occlusion,control,mask,partial viewing,many small,Stimulus\all_stim\occlusion\partialviewing\manysmall\control\manysmall_partialViewing_control_building5.png,mask_img/000000036004.png,experiment,r,r,607.7122075999941
4,19,Male,Right,50,Block 1,1.568704399993294,0.1,true,cat,cat,occlusion,low,mask,partial viewing,few large,Stimulus\all_stim\occlusion\partialviewing\fewlarge\low\fewlarge_partialViewing_low_cat2.png,mask_img/000000027371.png,experiment,o,o,610.3759867000044
4,19,Male,Right,51,Block 1,1.4482061000016984,0.025,true,bus,bus,occlusion,high,mask,partial viewing,many small,Stimulus\all_stim\occlusion\partialviewing\manysmall\high\manysmall_partialViewing_high_bus6.png,mask_img/000000047407.png,experiment,w,w,612.5755925999983
4,19,Male,Right,52,Block 1,1.7327766999951564,0.025,true,bus,bus,occlusion,high,mask,partial viewing,many small,Stimulus\all_stim\occlusion\partialviewing\manysmall\high\manysmall_partialViewing_high_bus1.png,mask_img/000000046676.png,experiment,w,w,615.3839537000022
4,19,Male,Right,53,Block 1,1.8771640999912051,0.025,true,building,building,occlusion,control,mask,partial viewing,many small,Stimulus\all_stim\occlusion\partialviewing\manysmall\control\manysmall_partialViewing_control_building1.png,mask_img/000000035818.png,experiment,r,r,618.1282323999912
4,19,Male,Right,54,Block 1,1.1082295999949565,0.05,false,cat,tree,occlusion,high,mask,partial viewing,few large,Stimulus\all_stim\occlusion\partialviewing\fewlarge\high\fewlarge_partialViewing_high_cat1.png,mask_img/000000017183.png,experiment,q,o,620.1602773999912
4,19,Male,Right,55,Block 1,2.0781483000027947,0.1,false,building,firehydrant,occlusion,high,mask,partial viewing,few large,Stimulus\all_stim\occlusion\partialviewing\fewlarge\high\fewlarge_partialViewing_high_building5.png,mask_img/000000014759.png,experiment,e,r,623.239880299996
4,19,Male,Right,56,Block 1,1.693122399999993,0.025,true,person,person,occlusion,control,mask,partial viewing,few large,Stimulus\all_stim\occlusion\partialviewing\fewlarge\control\fewlarge_partialViewing_control_person8.png,mask_img/000000009729.png,experiment,i,i,625.9594379000046
4,19,Male,Right,57,Block 1,2.395022600001539,0.1,false,person,banana,occlusion,high,mask,partial viewing,many small,Stimulus\all_stim\occlusion\partialviewing\manysmall\high\manysmall_partialViewing_high_person4.png,mask_img/000000052087.png,experiment,u,i,629.2398605000053
4,19,Male,Right,58,Block 1,1.5458367000101134,0.025,true,person,person,occlusion,low,mask,partial viewing,few large,Stimulus\all_stim\occlusion\partialviewing\fewlarge\low\fewlarge_partialViewing_low_person4.png,mask_img/000000029730.png,experiment,i,i,631.5528414
4,19,Male,Right,59,Block 1,0.8833516000013333,0.05,true,person,person,occlusion,low,mask,partial viewing,many small,Stimulus\all_stim\occlusion\partialviewing\manysmall\low\manysmall_partialViewing_low_person3.png,mask_img/000000062128.png,experiment,i,i,633.3674796999985
4,19,Male,Right,60,Block 1,1.561705800006166,0.025,true,bus,bus,occlusion,control,mask,partial viewing,few large,Stimulus\all_stim\occlusion\partialviewing\fewlarge\control\fewlarge_partialViewing_control_bus8.png,mask_img/000000006153.png,experiment,w,w,635.6401998999936
4,19,Male,Right,61,Block 1,1.8025376000005053,0.025,true,cat,cat,occlusion,control,mask,partial viewing,few large,Stimulus\all_stim\occlusion\partialviewing\fewlarge\control\fewlarge_partialViewing_control_cat2.png,mask_img/000000006489.png,experiment,o,o,638.4958957999916
4,19,Male,Right,62,Block 1,2.184175400005188,0.1,true,building,building,occlusion,low,mask,partial viewing,few large,Stimulus\all_stim\occlusion\partialviewing\fewlarge\low\fewlarge_partialViewing_low_building9.png,mask_img/000000025516.png,experiment,r,r,641.5358354999917
4,19,Male,Right,63,Block 1,1.7314678999973694,0.05,true,person,person,occlusion,control,mask,partial viewing,few large,Stimulus\all_stim\occlusion\partialviewing\fewlarge\control\fewlarge_partialViewing_control_person6.png,mask_img/000000009469.png,experiment,i,i,644.1596011999936
4,19,Male,Right,64,Block 1,2.043424200004665,0.025,true,building,building,occlusion,low,mask,partial viewing,few large,Stimulus\all_stim\occlusion\partialviewing\fewlarge\low\fewlarge_partialViewing_low_building4.png,mask_img/000000024912.png,experiment,r,r,647.0961094999948
4,19,Male,Right,65,Block 1,1.2831696999928681,0.1,true,building,building,occlusion,control,mask,partial viewing,many small,Stimulus\all_stim\occlusion\partialviewing\manysmall\control\manysmall_partialViewing_control_building1.png,mask_img/000000035818.png,experiment,r,r,649.0879325999995
4,19,Male,Right,66,Block 1,2.181105600000592,0.025,true,person,person,occlusion,low,mask,partial viewing,few large,Stimulus\all_stim\occlusion\partialviewing\fewlarge\low\fewlarge_partialViewing_low_person8.png,mask_img/000000030611.png,experiment,i,i,652.1121308000002
4,19,Male,Right,67,Block 1,0.9971377999900142,0.025,true,person,person,occlusion,control,mask,partial viewing,many small,Stimulus\all_stim\occlusion\partialviewing\manysmall\control\manysmall_partialViewing_control_person1.png,mask_img/000000039656.png,experiment,i,i,654.1198422000016
4,19,Male,Right,68,Block 1,1.6318546999973478,0.1,false,cat,bird,occlusion,high,mask,partial viewing,many small,Stimulus\all_stim\occlusion\partialviewing\manysmall\high\manysmall_partialViewing_high_cat9.png,mask_img/000000049933.png,experiment,p,o,656.5198166000046
4,19,Male,Right,69,Block 1,3.249081900008605,0.05,true,cat,cat,occlusion,high,mask,partial viewing,few large,Stimulus\all_stim\occlusion\partialviewing\fewlarge\high\fewlarge_partialViewing_high_cat6.png,mask_img/000000017476.png,experiment,o,o,660.4638250999997
4,19,Male,Right,70,Block 1,2.019237400003476,0.025,false,firehydrant,tree,occlusion,high,mask,partial viewing,few large,Stimulus\all_stim\occlusion\partialviewing\fewlarge\high\fewlarge_partialViewing_high_firehydrant10.png,mask_img/000000018441.png,experiment,q,e,663.5439218999963
4,19,Male,Right,71,Block 1,1.7417335999925854,0.025,true,cat,cat,occlusion,high,mask,partial viewing,few large,Stimulus\all_stim\occlusion\partialviewing\fewlarge\high\fewlarge_partialViewing_high_cat5.png,mask_img/000000017409.png,experiment,o,o,666.2481584999914
4,19,Male,Right,72,Block 1,1.524441499990644,0.05,true,banana,banana,occlusion,control,mask,partial viewing,few large,Stimulus\all_stim\occlusion\partialviewing\fewlarge\control\fewlarge_partialViewing_control_banana5.png,mask_img/000000000459.png,experiment,u,u,668.4317333999934
4,19,Male,Right,73,Block 1,2.026345400008722,0.1,true,person,person,occlusion,low,mask,partial viewing,many small,Stimulus\all_stim\occlusion\partialviewing\manysmall\low\manysmall_partialViewing_low_person5.png,mask_img/000000062193.png,experiment,i,i,671.4554653999949
4,19,Male,Right,74,Block 1,1.5896377000026405,0.025,true,banana,banana,occlusion,low,mask,partial viewing,many small,Stimulus\all_stim\occlusion\partialviewing\manysmall\low\manysmall_partialViewing_low_banana10.png,mask_img/000000054723.png,experiment,u,u,673.7758298999979
4,19,Male,Right,75,Block 1,0.7723315000039292,0.05,true,tree,tree,occlusion,control,mask,partial viewing,few large,Stimulus\all_stim\occlusion\partialviewing\fewlarge\control\fewlarge_partialViewing_control_tree7.png,mask_img/000000011504.png,experiment,q,q,675.6240221000044
4,19,Male,Right,76,Block 1,1.9965058999950998,0.05,true,cat,cat,occlusion,low,mask,partial viewing,many small,Stimulus\all_stim\occlusion\partialviewing\manysmall\low\manysmall_partialViewing_low_cat3.png,mask_img/000000059442.png,experiment,o,o,678.5755989000027
4,19,Male,Right,77,Block 1,1.6637129000009736,0.05,true,firehydrant,firehydrant,occlusion,low,mask,partial viewing,few large,Stimulus\all_stim\occlusion\partialviewing\fewlarge\low\fewlarge_partialViewing_low_firehydrant1.png,mask_img/000000028304.png,experiment,e,e,680.9921450999973
4,19,Male,Right,78,Block 1,1.3410346999880858,0.1,true,bus,bus,occlusion,low,mask,partial viewing,few large,Stimulus\all_stim\occlusion\partialviewing\fewlarge\low\fewlarge_partialViewing_low_bus7.png,mask_img/000000026720.png,experiment,w,w,683.271998199998
4,19,Male,Right,79,Block 1,1.6563891999976477,0.025,true,cat,cat,occlusion,high,mask,partial viewing,many small,Stimulus\all_stim\occlusion\partialviewing\manysmall\high\manysmall_partialViewing_high_cat7.png,mask_img/000000049602.png,experiment,o,o,685.6959509000008
4,19,Male,Right,80,Block 1,1.1197525000025053,0.1,false,cat,tree,occlusion,high,mask,partial viewing,many small,Stimulus\all_stim\occlusion\partialviewing\manysmall\high\manysmall_partialViewing_high_cat1.png,mask_img/000000048664.png,experiment,q,o,687.5357742999913
4,19,Male,Right,81,Block 1,1.7424349000066286,0.05,true,firehydrant,firehydrant,occlusion,control,mask,partial viewing,many small,Stimulus\all_stim\occlusion\partialviewing\manysmall\control\manysmall_partialViewing_control_firehydrant3.png,mask_img/000000039113.png,experiment,e,e,690.3118022999988
4,19,Male,Right,82,Block 1,1.4886421000119299,0.05,true,building,building,occlusion,control,mask,partial viewing,many small,Stimulus\all_stim\occlusion\partialviewing\manysmall\control\manysmall_partialViewing_control_building4.png,mask_img/000000035985.png,experiment,r,r,692.5517749999999
4,19,Male,Right,83,Block 1,0.8627478999987943,0.05,true,tree,tree,occlusion,low,mask,partial viewing,many small,Stimulus\all_stim\occlusion\partialviewing\manysmall\low\manysmall_partialViewing_low_tree1.png,mask_img/000000062690.png,experiment,q,q,694.4317480000027
4,19,Male,Right,84,Block 1,1.2231773999956204,0.05,true,bus,bus,occlusion,high,mask,partial viewing,few large,Stimulus\all_stim\occlusion\partialviewing\fewlarge\high\fewlarge_partialViewing_high_bus3.png,mask_img/000000015908.png,experiment,w,w,696.5281192999973
4,19,Male,Right,85,Block 1,1.0248995000001742,0.025,true,bus,bus,occlusion,control,mask,partial viewing,many small,Stimulus\all_stim\occlusion\partialviewing\manysmall\control\manysmall_partialViewing_control_bus5.png,mask_img/000000037140.png,experiment,w,w,698.3037997999927
4,19,Male,Right,86,Block 1,0.8894845999893732,0.025,true,tree,tree,occlusion,control,mask,partial viewing,many small,Stimulus\all_stim\occlusion\partialviewing\manysmall\control\manysmall_partialViewing_control_tree9.png,mask_img/000000041840.png,experiment,q,q,700.2879400999955
4,19,Male,Right,87,Block 1,0.9891233000089414,0.1,true,bus,bus,occlusion,high,mask,partial viewing,few large,Stimulus\all_stim\occlusion\partialviewing\fewlarge\high\fewlarge_partialViewing_high_bus1.png,mask_img/000000015645.png,experiment,w,w,702.1758442999999
4,19,Male,Right,88,Block 1,1.5566478000109782,0.025,true,banana,banana,occlusion,low,mask,partial viewing,few large,Stimulus\all_stim\occlusion\partialviewing\fewlarge\low\fewlarge_partialViewing_low_banana5.png,mask_img/000000023100.png,experiment,u,u,704.7996678999916
4,19,Male,Right,89,Block 1,1.5957515000045532,0.025,true,building,building,occlusion,high,mask,partial viewing,few large,Stimulus\all_stim\occlusion\partialviewing\fewlarge\high\fewlarge_partialViewing_high_building7.png,mask_img/000000015155.png,experiment,r,r,707.511450799997
4,19,Male,Right,90,Block 1,1.4306247000058647,0.05,true,firehydrant,firehydrant,occlusion,low,mask,partial viewing,many small,Stimulus\all_stim\occlusion\partialviewing\manysmall\low\manysmall_partialViewing_low_firehydrant2.png,mask_img/000000060548.png,experiment,e,e,709.8798824999976
4,19,Male,Right,91,Block 1,1.4573996999970404,0.1,true,bus,bus,occlusion,control,mask,partial viewing,many small,Stimulus\all_stim\occlusion\partialviewing\manysmall\control\manysmall_partialViewing_control_bus7.png,mask_img/000000037339.png,experiment,w,w,712.1604309999966
4,19,Male,Right,92,Block 1,1.4480654999933904,0.05,false,firehydrant,building,occlusion,low,mask,partial viewing,many small,Stimulus\all_stim\occlusion\partialviewing\manysmall\low\manysmall_partialViewing_low_firehydrant7.png,mask_img/000000061084.png,experiment,r,e,714.6963126000046
4,19,Male,Right,93,Block 1,1.5784297999925911,0.05,true,banana,banana,occlusion,low,mask,partial viewing,many small,Stimulus\all_stim\occlusion\partialviewing\manysmall\low\manysmall_partialViewing_low_banana8.png,mask_img/000000055630.png,experiment,u,u,717.3998161999916
4,19,Male,Right,94,Block 1,1.5289866000093753,0.1,true,cat,cat,occlusion,low,mask,partial viewing,many small,Stimulus\all_stim\occlusion\partialviewing\manysmall\low\manysmall_partialViewing_low_cat3.png,mask_img/000000059442.png,experiment,o,o,719.9680528000026
4,19,Male,Right,95,Block 1,1.7479175000044052,0.025,true,firehydrant,firehydrant,occlusion,high,mask,partial viewing,few large,Stimulus\all_stim\occlusion\partialviewing\fewlarge\high\fewlarge_partialViewing_high_firehydrant3.png,mask_img/000000018864.png,experiment,e,e,722.6878604999947
4,19,Male,Right,96,Block 1,1.6924614000017755,0.05,true,building,building,occlusion,low,mask,partial viewing,many small,Stimulus\all_stim\occlusion\partialviewing\manysmall\low\manysmall_partialViewing_low_building7.png,mask_img/000000058021.png,experiment,r,r,725.0554916999972
4,19,Male,Right,97,Block 1,1.2934936999954516,0.025,false,person,building,occlusion,high,mask,partial viewing,many small,Stimulus\all_stim\occlusion\partialviewing\manysmall\high\manysmall_partialViewing_high_person10.png,mask_img/000000051453.png,experiment,r,i,727.4239721999911
4,19,Male,Right,98,Block 1,1.8145055000059074,0.05,false,firehydrant,person,occlusion,high,mask,partial viewing,few large,Stimulus\all_stim\occlusion\partialviewing\fewlarge\high\fewlarge_partialViewing_high_firehydrant1.png,mask_img/000000017944.png,experiment,i,e,730.1519122000027
4,19,Male,Right,99,Block 1,1.8949842000001809,0.05,true,firehydrant,firehydrant,occlusion,high,mask,partial viewing,many small,Stimulus\all_stim\occlusion\partialviewing\manysmall\high\manysmall_partialViewing_high_firehydrant1.png,mask_img/000000049987.png,experiment,e,e,732.687871400005
4,19,Male,Right,100,Block 1,0.9857754999975441,0.05,false,banana,firehydrant,occlusion,high,mask,partial viewing,many small,Stimulus\all_stim\occlusion\partialviewing\manysmall\high\manysmall_partialViewing_high_banana9.png,mask_img/000000043579.png,experiment,e,u,734.6952992000006
4,19,Male,Right,101,Block 1,1.6661235000065062,0.1,true,cat,cat,occlusion,low,mask,partial viewing,many small,Stimulus\all_stim\occlusion\partialviewing\manysmall\low\manysmall_partialViewing_low_cat4.png,mask_img/000000059483.png,experiment,o,o,737.391907199999
4,19,Male,Right,102,Block 1,0.945014099997934,0.05,false,person,cat,occlusion,low,mask,partial viewing,many small,Stimulus\all_stim\occlusion\partialviewing\manysmall\low\manysmall_partialViewing_low_person8.png,mask_img/000000062420.png,experiment,o,i,739.1040514999913
4,19,Male,Right,103,Block 1,0.9777862000046298,0.025,true,building,building,occlusion,low,mask,partial viewing,few large,Stimulus\all_stim\occlusion\partialviewing\fewlarge\low\fewlarge_partialViewing_low_building6.png,mask_img/000000025143.png,experiment,r,r,741.1759613000031
4,19,Male,Right,104,Block 1,0.6937778999999864,0.1,true,tree,tree,occlusion,control,mask,partial viewing,few large,Stimulus\all_stim\occlusion\partialviewing\fewlarge\control\fewlarge_partialViewing_control_tree2.png,mask_img/000000010560.png,experiment,q,q,742.6806165000016
4,19,Male,Right,105,Block 1,2.426168799996958,0.1,true,tree,tree,occlusion,high,mask,partial viewing,many small,Stimulus\all_stim\occlusion\partialviewing\manysmall\high\manysmall_partialViewing_high_tree1.png,mask_img/000000052784.png,experiment,q,q,745.7917541999923
4,19,Male,Right,106,Block 1,1.223358899995219,0.05,true,cat,cat,occlusion,low,mask,partial viewing,few large,Stimulus\all_stim\occlusion\partialviewing\fewlarge\low\fewlarge_partialViewing_low_cat3.png,mask_img/000000027556.png,experiment,o,o,748.0803330000053
4,19,Male,Right,107,Block 1,1.7353336999949533,0.025,true,person,person,occlusion,high,mask,partial viewing,few large,Stimulus\all_stim\occlusion\partialviewing\fewlarge\high\fewlarge_partialViewing_high_person7.png,mask_img/000000020421.png,experiment,i,i,750.7916999000008
4,19,Male,Right,108,Block 1,2.0935367999918526,0.1,true,tree,tree,occlusion,low,mask,partial viewing,many small,Stimulus\all_stim\occlusion\partialviewing\manysmall\low\manysmall_partialViewing_low_tree3.png,mask_img/000000063147.png,experiment,q,q,753.8639904000011
4,19,Male,Right,109,Block 1,1.7983963000006042,0.05,true,firehydrant,firehydrant,occlusion,control,mask,partial viewing,many small,Stimulus\all_stim\occlusion\partialviewing\manysmall\control\manysmall_partialViewing_control_firehydrant10.png,mask_img/000000039053.png,experiment,e,e,756.3118131999945
4,19,Male,Right,110,Block 1,1.635781399992993,0.1,false,bird,firehydrant,occlusion,high,mask,partial viewing,many small,Stimulus\all_stim\occlusion\partialviewing\manysmall\high\manysmall_partialViewing_high_bird10.png,mask_img/000000044065.png,experiment,e,p,758.8811086999922
4,19,Male,Right,111,Block 1,1.52881439999328,0.1,true,firehydrant,firehydrant,occlusion,control,mask,partial viewing,many small,Stimulus\all_stim\occlusion\partialviewing\manysmall\control\manysmall_partialViewing_control_firehydrant8.png,mask_img/000000039553.png,experiment,e,e,761.4959431000025
4,19,Male,Right,112,Block 1,1.4196727000089595,0.05,true,banana,banana,occlusion,low,mask,partial viewing,many small,Stimulus\all_stim\occlusion\partialviewing\manysmall\low\manysmall_partialViewing_low_banana6.png,mask_img/000000055460.png,experiment,u,u,763.8082925999915
4,19,Male,Right,113,Block 1,3.5754614000034053,0.05,true,bus,bus,occlusion,low,mask,partial viewing,few large,Stimulus\all_stim\occlusion\partialviewing\fewlarge\low\fewlarge_partialViewing_low_bus1.png,mask_img/000000025820.png,experiment,w,w,768.0663709999935
4,19,Male,Right,114,Block 1,2.039047700003721,0.1,true,cat,cat,occlusion,control,mask,partial viewing,few large,Stimulus\all_stim\occlusion\partialviewing\fewlarge\control\fewlarge_partialViewing_control_cat5.png,mask_img/000000006870.png,experiment,o,o,771.208378299998
4,19,Male,Right,115,Block 1,0.8842648999998346,0.1,true,cat,cat,occlusion,low,mask,partial viewing,many small,Stimulus\all_stim\occlusion\partialviewing\manysmall\low\manysmall_partialViewing_low_cat6.png,mask_img/000000059918.png,experiment,o,o,772.9359933999949
4,19,Male,Right,116,Block 1,0.9101407999987714,0.025,true,tree,tree,occlusion,high,mask,partial viewing,few large,Stimulus\all_stim\occlusion\partialviewing\fewlarge\high\fewlarge_partialViewing_high_tree1.png,mask_img/000000021206.png,experiment,q,q,774.711930999998
4,19,Male,Right,117,Block 1,1.60855740000261,0.05,true,tree,tree,occlusion,control,mask,partial viewing,many small,Stimulus\all_stim\occlusion\partialviewing\manysmall\control\manysmall_partialViewing_control_tree10.png,mask_img/000000040948.png,experiment,q,q,777.2556638999959
4,19,Male,Right,118,Block 1,1.3770790999988094,0.025,true,cat,cat,occlusion,control,mask,partial viewing,many small,Stimulus\all_stim\occlusion\partialviewing\manysmall\control\manysmall_partialViewing_control_cat9.png,mask_img/000000038862.png,experiment,o,o,779.5435907999927
4,19,Male,Right,119,Block 1,1.673882400005823,0.025,true,firehydrant,firehydrant,occlusion,control,mask,partial viewing,many small,Stimulus\all_stim\occlusion\partialviewing\manysmall\control\manysmall_partialViewing_control_firehydrant5.png,mask_img/000000039211.png,experiment,e,e,782.1996467999998
4,19,Male,Right,120,Block 1,1.8814908000058495,0.025,false,banana,bird,occlusion,high,mask,partial viewing,many small,Stimulus\all_stim\occlusion\partialviewing\manysmall\high\manysmall_partialViewing_high_banana3.png,mask_img/000000042476.png,experiment,p,u,784.9442565999925
4,19,Male,Right,121,Block 1,1.2441869000031147,0.05,true,bus,bus,occlusion,control,mask,partial viewing,many small,Stimulus\all_stim\occlusion\partialviewing\manysmall\control\manysmall_partialViewing_control_bus10.png,mask_img/000000036482.png,experiment,w,w,787.1757152999926
4,19,Male,Right,122,Block 1,0.9054759999999078,0.1,false,cat,tree,occlusion,high,mask,partial viewing,few large,Stimulus\all_stim\occlusion\partialviewing\fewlarge\high\fewlarge_partialViewing_high_cat9.png,mask_img/000000017858.png,experiment,q,o,788.873660600002
4,19,Male,Right,123,Block 1,1.71796059999906,0.025,true,building,building,occlusion,high,mask,partial viewing,few large,Stimulus\all_stim\occlusion\partialviewing\fewlarge\high\fewlarge_partialViewing_high_building9.png,mask_img/000000015619.png,experiment,r,r,791.6954610999965
4,19,Male,Right,124,Block 1,1.43297259999963,0.025,true,cat,cat,occlusion,control,mask,partial viewing,many small,Stimulus\all_stim\occlusion\partialviewing\manysmall\control\manysmall_partialViewing_control_cat3.png,mask_img/000000038381.png,experiment,o,o,793.9923016999965
4,19,Male,Right,125,Block 1,0.9976141999941319,0.1,true,tree,tree,occlusion,high,mask,partial viewing,many small,Stimulus\all_stim\occlusion\partialviewing\manysmall\high\manysmall_partialViewing_high_tree10.png,mask_img/000000052818.png,experiment,q,q,796.0402015
4,19,Male,Right,126,Block 1,1.1249875999928918,0.05,false,bird,cat,occlusion,high,mask,partial viewing,few large,Stimulus\all_stim\occlusion\partialviewing\fewlarge\high\fewlarge_partialViewing_high_bird10.png,mask_img/000000013127.png,experiment,o,p,798.2157792999933
4,19,Male,Right,127,Block 1,0.8323909000027925,0.025,false,person,cat,occlusion,low,mask,partial viewing,many small,Stimulus\all_stim\occlusion\partialviewing\manysmall\low\manysmall_partialViewing_low_person2.png,mask_img/000000061867.png,experiment,o,i,799.8496150999999
4,19,Male,Right,128,Block 1,0.8086566999991192,0.05,true,tree,tree,occlusion,low,mask,partial viewing,many small,Stimulus\all_stim\occlusion\partialviewing\manysmall\low\manysmall_partialViewing_low_tree4.png,mask_img/000000063337.png,experiment,q,q,801.5273646999995
4,19,Male,Right,129,Block 1,2.203716300005908,0.025,true,banana,banana,occlusion,control,mask,partial viewing,many small,Stimulus\all_stim\occlusion\partialviewing\manysmall\control\manysmall_partialViewing_control_banana4.png,mask_img/000000033667.png,experiment,u,u,804.8481318999984
4,19,Male,Right,130,Block 1,2.3373659000062617,0.05,true,bus,bus,occlusion,high,mask,partial viewing,many small,Stimulus\all_stim\occlusion\partialviewing\manysmall\high\manysmall_partialViewing_high_bus9.png,mask_img/000000048268.png,experiment,w,w,808.0955429000023
4,19,Male,Right,131,Block 1,1.7804190000024391,0.05,false,bird,cat,occlusion,high,mask,partial viewing,few large,Stimulus\all_stim\occlusion\partialviewing\fewlarge\high\fewlarge_partialViewing_high_bird4.png,mask_img/000000013721.png,experiment,o,p,810.9359885000013
4,19,Male,Right,132,Block 1,0.8725959000003058,0.025,true,tree,tree,occlusion,high,mask,partial viewing,few large,Stimulus\all_stim\occlusion\partialviewing\fewlarge\high\fewlarge_partialViewing_high_tree8.png,mask_img/000000022355.png,experiment,q,q,812.4717497999955
4,19,Male,Right,133,Block 1,0.969826299988199,0.025,true,building,building,occlusion,high,mask,partial viewing,many small,Stimulus\all_stim\occlusion\partialviewing\manysmall\high\manysmall_partialViewing_high_building1.png,mask_img/000000044950.png,experiment,r,r,814.2638609999995
4,19,Male,Right,134,Block 1,0.9910750999988522,0.05,true,bus,bus,occlusion,control,mask,partial viewing,few large,Stimulus\all_stim\occlusion\partialviewing\fewlarge\control\fewlarge_partialViewing_control_bus3.png,mask_img/000000005418.png,experiment,w,w,816.1838982000045
4,19,Male,Right,135,Block 1,1.0655885000014678,0.05,true,building,building,occlusion,high,mask,partial viewing,few large,Stimulus\all_stim\occlusion\partialviewing\fewlarge\high\fewlarge_partialViewing_high_building3.png,mask_img/000000014567.png,experiment,r,r,818.0319759999984
4,19,Male,Right,136,Block 1,0.7912726000067778,0.025,false,bird,tree,occlusion,low,mask,partial viewing,many small,Stimulus\all_stim\occlusion\partialviewing\manysmall\low\manysmall_partialViewing_low_bird9.png,mask_img/000000056641.png,experiment,q,p,819.784009199997
4,19,Male,Right,137,Block 1,1.885082799999509,0.1,true,banana,banana,occlusion,high,mask,partial viewing,many small,Stimulus\all_stim\occlusion\partialviewing\manysmall\high\manysmall_partialViewing_high_banana2.png,mask_img/000000042408.png,experiment,u,u,822.6398301000008
4,19,Male,Right,138,Block 1,1.1375459999981103,0.05,true,cat,cat,occlusion,high,mask,partial viewing,few large,Stimulus\all_stim\occlusion\partialviewing\fewlarge\high\fewlarge_partialViewing_high_cat4.png,mask_img/000000017364.png,experiment,o,o,824.8482636999979
4,19,Male,Right,139,Block 1,1.585962400000426,0.1,true,firehydrant,firehydrant,occlusion,low,mask,partial viewing,many small,Stimulus\all_stim\occlusion\partialviewing\manysmall\low\manysmall_partialViewing_low_firehydrant5.png,mask_img/000000060623.png,experiment,e,e,827.2962557999999
4,19,Male,Right,140,Block 1,0.9826478000031784,0.1,true,firehydrant,firehydrant,occlusion,high,mask,partial viewing,many small,Stimulus\all_stim\occlusion\partialviewing\manysmall\high\manysmall_partialViewing_high_firehydrant1.png,mask_img/000000049987.png,experiment,e,e,828.9998806999938
4,19,Male,Right,141,Block 1,1.1353438000078313,0.025,true,cat,cat,occlusion,low,mask,partial viewing,many small,Stimulus\all_stim\occlusion\partialviewing\manysmall\low\manysmall_partialViewing_low_cat3.png,mask_img/000000059442.png,experiment,o,o,830.8320052999916
4,19,Male,Right,142,Block 1,1.1395569000014802,0.1,false,bird,tree,occlusion,high,mask,partial viewing,few large,Stimulus\all_stim\occlusion\partialviewing\fewlarge\high\fewlarge_partialViewing_high_bird7.png,mask_img/000000013949.png,experiment,q,p,832.8800016000023
4,19,Male,Right,143,Block 1,0.8536147999984678,0.05,true,tree,tree,occlusion,high,mask,partial viewing,few large,Stimulus\all_stim\occlusion\partialviewing\fewlarge\high\fewlarge_partialViewing_high_tree6.png,mask_img/000000022142.png,experiment,q,q,834.4878233999916
4,19,Male,Right,144,Block 1,1.4393400999979349,0.025,true,building,building,occlusion,low,mask,partial viewing,few large,Stimulus\all_stim\occlusion\partialviewing\fewlarge\low\fewlarge_partialViewing_low_building1.png,mask_img/000000024552.png,experiment,r,r,866.9116792999994
4,19,Male,Right,145,Block 2,1.6179493000090588,0.1,true,bus,bus,occlusion,control,mask,partial viewing,few large,Stimulus\all_stim\occlusion\partialviewing\fewlarge\control\fewlarge_partialViewing_control_bus3.png,mask_img/000000005418.png,experiment,w,w,869.5047097999923
4,19,Male,Right,146,Block 2,1.2569624000025215,0.1,true,firehydrant,firehydrant,occlusion,low,mask,partial viewing,many small,Stimulus\all_stim\occlusion\partialviewing\manysmall\low\manysmall_partialViewing_low_firehydrant7.png,mask_img/000000061084.png,experiment,e,e,871.8316243000008
4,19,Male,Right,147,Block 2,1.0838102999987314,0.05,true,bird,bird,occlusion,low,mask,partial viewing,few large,Stimulus\all_stim\occlusion\partialviewing\fewlarge\low\fewlarge_partialViewing_low_bird6.png,mask_img/000000024247.png,experiment,p,p,874.0157304000022
4,19,Male,Right,148,Block 2,0.8298748999950476,0.025,true,bird,bird,occlusion,low,mask,partial viewing,few large,Stimulus\all_stim\occlusion\partialviewing\fewlarge\low\fewlarge_partialViewing_low_bird8.png,mask_img/000000024404.png,experiment,p,p,875.9355376000021
4,19,Male,Right,149,Block 2,0.9460358000069391,0.1,true,tree,tree,occlusion,high,mask,partial viewing,few large,Stimulus\all_stim\occlusion\partialviewing\fewlarge\high\fewlarge_partialViewing_high_tree3.png,mask_img/000000021942.png,experiment,q,q,877.5437721999915
4,19,Male,Right,150,Block 2,0.9277475999988383,0.1,true,tree,tree,occlusion,low,mask,partial viewing,few large,Stimulus\all_stim\occlusion\partialviewing\fewlarge\low\fewlarge_partialViewing_low_tree10.png,mask_img/000000031454.png,experiment,q,q,879.424154399996
4,19,Male,Right,151,Block 2,1.6806206999899587,0.1,false,person,building,occlusion,high,mask,partial viewing,many small,Stimulus\all_stim\occlusion\partialviewing\manysmall\high\manysmall_partialViewing_high_person3.png,mask_img/000000051880.png,experiment,r,i,881.9757734000013
4,19,Male,Right,152,Block 2,1.771891999989748,0.025,true,firehydrant,firehydrant,occlusion,control,mask,partial viewing,many small,Stimulus\all_stim\occlusion\partialviewing\manysmall\control\manysmall_partialViewing_control_firehydrant8.png,mask_img/000000039553.png,experiment,e,e,884.8637846000056
4,19,Male,Right,153,Block 2,0.854985800004215,0.05,true,tree,tree,occlusion,high,mask,partial viewing,many small,Stimulus\all_stim\occlusion\partialviewing\manysmall\high\manysmall_partialViewing_high_tree2.png,mask_img/000000052901.png,experiment,q,q,886.5112297000014
4,19,Male,Right,154,Block 2,1.6331353999994462,0.1,false,banana,person,occlusion,high,mask,partial viewing,many small,Stimulus\all_stim\occlusion\partialviewing\manysmall\high\manysmall_partialViewing_high_banana7.png,mask_img/000000043024.png,experiment,i,u,888.9598623000056
4,19,Male,Right,155,Block 2,1.5694464000116568,0.05,true,firehydrant,firehydrant,occlusion,low,mask,partial viewing,few large,Stimulus\all_stim\occlusion\partialviewing\fewlarge\low\fewlarge_partialViewing_low_firehydrant9.png,mask_img/000000029056.png,experiment,e,e,891.3436655999976
4,19,Male,Right,156,Block 2,1.418620699987514,0.025,true,firehydrant,firehydrant,occlusion,control,mask,partial viewing,few large,Stimulus\all_stim\occlusion\partialviewing\fewlarge\control\fewlarge_partialViewing_control_firehydrant1.png,mask_img/000000007740.png,experiment,e,e,893.4876765999943
4,19,Male,Right,157,Block 2,1.0224078000028385,0.1,true,building,building,occlusion,control,mask,partial viewing,few large,Stimulus\all_stim\occlusion\partialviewing\fewlarge\control\fewlarge_partialViewing_control_building5.png,mask_img/000000004642.png,experiment,r,r,895.439543600005
4,19,Male,Right,158,Block 2,1.85515440000745,0.05,true,person,person,occlusion,low,mask,partial viewing,few large,Stimulus\all_stim\occlusion\partialviewing\fewlarge\low\fewlarge_partialViewing_low_person10.png,mask_img/000000029128.png,experiment,i,i,898.3838142000022
4,19,Male,Right,159,Block 2,1.7555091999965953,0.05,true,firehydrant,firehydrant,occlusion,high,mask,partial viewing,few large,Stimulus\all_stim\occlusion\partialviewing\fewlarge\high\fewlarge_partialViewing_high_firehydrant10.png,mask_img/000000018441.png,experiment,e,e,900.9518386999989
4,19,Male,Right,160,Block 2,1.4288909999886528,0.05,true,person,person,occlusion,low,mask,partial viewing,few large,Stimulus\all_stim\occlusion\partialviewing\fewlarge\low\fewlarge_partialViewing_low_person2.png,mask_img/000000029274.png,experiment,i,i,903.0560553999967
4,19,Male,Right,161,Block 2,1.7389714000019012,0.05,false,bus,firehydrant,occlusion,low,mask,partial viewing,many small,Stimulus\all_stim\occlusion\partialviewing\manysmall\low\manysmall_partialViewing_low_bus6.png,mask_img/000000058815.png,experiment,e,w,905.487895600003
4,19,Male,Right,162,Block 2,1.7494519000028959,0.05,true,firehydrant,firehydrant,occlusion,control,mask,partial viewing,few large,Stimulus\all_stim\occlusion\partialviewing\fewlarge\control\fewlarge_partialViewing_control_firehydrant1.png,mask_img/000000007740.png,experiment,e,e,907.9757503000001
4,19,Male,Right,163,Block 2,2.4363970999984303,0.1,true,banana,banana,occlusion,control,mask,partial viewing,many small,Stimulus\all_stim\occlusion\partialviewing\manysmall\control\manysmall_partialViewing_control_banana9.png,mask_img/000000033955.png,experiment,u,u,911.4159390999994
4,19,Male,Right,164,Block 2,2.2847919999912847,0.05,true,bus,bus,occlusion,high,mask,partial viewing,few large,Stimulus\all_stim\occlusion\partialviewing\fewlarge\high\fewlarge_partialViewing_high_bus9.png,mask_img/000000016764.png,experiment,w,w,914.4160462
4,19,Male,Right,165,Block 2,1.6070961999939755,0.05,true,firehydrant,firehydrant,occlusion,low,mask,partial viewing,many small,Stimulus\all_stim\occlusion\partialviewing\manysmall\low\manysmall_partialViewing_low_firehydrant1.png,mask_img/000000060464.png,experiment,e,e,916.687841299994
4,19,Male,Right,166,Block 2,2.126696199993603,0.025,true,cat,cat,occlusion,control,mask,partial viewing,many small,Stimulus\all_stim\occlusion\partialviewing\manysmall\control\manysmall_partialViewing_control_cat6.png,mask_img/000000038753.png,experiment,o,o,919.7439843000029
4,19,Male,Right,167,Block 2,1.5019049000111409,0.1,true,firehydrant,firehydrant,occlusion,low,mask,partial viewing,few large,Stimulus\all_stim\occlusion\partialviewing\fewlarge\low\fewlarge_partialViewing_low_firehydrant6.png,mask_img/000000028842.png,experiment,e,e,922.1196919999929
4,19,Male,Right,168,Block 2,2.1020035999972606,0.05,true,cat,cat,occlusion,low,mask,partial viewing,many small,Stimulus\all_stim\occlusion\partialviewing\manysmall\low\manysmall_partialViewing_low_cat9.png,mask_img/000000060387.png,experiment,o,o,925.200173499994
4,19,Male,Right,169,Block 2,1.0443604000029154,0.1,true,tree,tree,occlusion,control,mask,partial viewing,many small,Stimulus\all_stim\occlusion\partialviewing\manysmall\control\manysmall_partialViewing_control_tree6.png,mask_img/000000041272.png,experiment,q,q,927.3035209999944
4,19,Male,Right,170,Block 2,1.060261200007517,0.05,true,bird,bird,occlusion,control,mask,partial viewing,few large,Stimulus\all_stim\occlusion\partialviewing\fewlarge\control\fewlarge_partialViewing_control_bird2.png,mask_img/000000001647.png,experiment,p,p,929.0715446999966
4,19,Male,Right,171,Block 2,1.4619445000134874,0.1,true,bus,bus,occlusion,low,mask,partial viewing,few large,Stimulus\all_stim\occlusion\partialviewing\fewlarge\low\fewlarge_partialViewing_low_bus5.png,mask_img/000000026497.png,experiment,w,w,931.4002067999972
4,19,Male,Right,172,Block 2,1.1010996000113664,0.05,true,firehydrant,firehydrant,occlusion,low,mask,partial viewing,few large,Stimulus\all_stim\occlusion\partialviewing\fewlarge\low\fewlarge_partialViewing_low_firehydrant10.png,mask_img/000000028367.png,experiment,e,e,933.3363318000047
4,19,Male,Right,173,Block 2,1.5187560999911511,0.025,true,bird,bird,occlusion,low,mask,partial viewing,few large,Stimulus\all_stim\occlusion\partialviewing\fewlarge\low\fewlarge_partialViewing_low_bird9.png,mask_img/000000024530.png,experiment,p,p,935.687946399994
4,19,Male,Right,174,Block 2,1.2602907999971649,0.1,true,building,building,occlusion,control,mask,partial viewing,many small,Stimulus\all_stim\occlusion\partialviewing\manysmall\control\manysmall_partialViewing_control_building8.png,mask_img/000000036091.png,experiment,r,r,938.0078471000015
4,19,Male,Right,175,Block 2,2.0246165999997174,0.1,true,banana,banana,occlusion,low,mask,partial viewing,many small,Stimulus\all_stim\occlusion\partialviewing\manysmall\low\manysmall_partialViewing_low_banana6.png,mask_img/000000055460.png,experiment,u,u,941.1037808999972
4,19,Male,Right,176,Block 2,1.7955122999992454,0.025,true,person,person,occlusion,control,mask,partial viewing,few large,Stimulus\all_stim\occlusion\partialviewing\fewlarge\control\fewlarge_partialViewing_control_person5.png,mask_img/000000009286.png,experiment,i,i,943.7119308999972
4,19,Male,Right,177,Block 2,2.0096734999970067,0.1,true,bus,bus,occlusion,control,mask,partial viewing,few large,Stimulus\all_stim\occlusion\partialviewing\fewlarge\control\fewlarge_partialViewing_control_bus10.png,mask_img/000000005282.png,experiment,w,w,946.521135300005
4,19,Male,Right,178,Block 2,1.4716800000023795,0.1,false,bus,building,occlusion,high,mask,partial viewing,many small,Stimulus\all_stim\occlusion\partialviewing\manysmall\high\manysmall_partialViewing_high_bus10.png,mask_img/000000046805.png,experiment,r,w,948.7198334999994
4,19,Male,Right,179,Block 2,0.8484868999948958,0.025,true,tree,tree,occlusion,high,mask,partial viewing,many small,Stimulus\all_stim\occlusion\partialviewing\manysmall\high\manysmall_partialViewing_high_tree9.png,mask_img/000000054336.png,experiment,q,q,950.5677175000019
4,19,Male,Right,180,Block 2,1.8203183999867178,0.05,true,firehydrant,firehydrant,occlusion,high,mask,partial viewing,many small,Stimulus\all_stim\occlusion\partialviewing\manysmall\high\manysmall_partialViewing_high_firehydrant5.png,mask_img/000000050496.png,experiment,e,e,953.4153430000006
4,19,Male,Right,181,Block 2,1.0249823999911314,0.05,true,building,building,occlusion,high,mask,partial viewing,many small,Stimulus\all_stim\occlusion\partialviewing\manysmall\high\manysmall_partialViewing_high_building5.png,mask_img/000000046029.png,experiment,r,r,955.2394001999928
4,19,Male,Right,182,Block 2,1.7136533000011696,0.05,true,firehydrant,firehydrant,occlusion,low,mask,partial viewing,few large,Stimulus\all_stim\occlusion\partialviewing\fewlarge\low\fewlarge_partialViewing_low_firehydrant8.png,mask_img/000000028988.png,experiment,e,e,957.5918620000011
4,19,Male,Right,183,Block 2,0.9275236000103178,0.05,true,firehydrant,firehydrant,occlusion,low,mask,partial viewing,few large,Stimulus\all_stim\occlusion\partialviewing\fewlarge\low\fewlarge_partialViewing_low_firehydrant3.png,mask_img/000000028518.png,experiment,e,e,959.2790963000007
4,19,Male,Right,184,Block 2,1.6091221999959089,0.05,true,person,person,occlusion,low,mask,partial viewing,few large,Stimulus\all_stim\occlusion\partialviewing\fewlarge\low\fewlarge_partialViewing_low_person6.png,mask_img/000000030267.png,experiment,i,i,961.7994503999944
4,19,Male,Right,185,Block 2,0.980682200010051,0.1,true,bird,bird,occlusion,low,mask,partial viewing,many small,Stimulus\all_stim\occlusion\partialviewing\manysmall\low\manysmall_partialViewing_low_bird5.png,mask_img/000000055942.png,experiment,p,p,963.6717815000011
4,19,Male,Right,186,Block 2,1.5385687999951188,0.1,true,banana,banana,occlusion,high,mask,partial viewing,many small,Stimulus\all_stim\occlusion\partialviewing\manysmall\high\manysmall_partialViewing_high_banana5.png,mask_img/000000042541.png,experiment,u,u,966.135749299996
4,19,Male,Right,187,Block 2,0.8595790999970632,0.05,true,banana,banana,occlusion,high,mask,partial viewing,few large,Stimulus\all_stim\occlusion\partialviewing\fewlarge\high\fewlarge_partialViewing_high_banana7.png,mask_img/000000012567.png,experiment,u,u,968.0073868000036
4,19,Male,Right,188,Block 2,2.1376071000122465,0.025,true,bus,bus,occlusion,control,mask,partial viewing,few large,Stimulus\all_stim\occlusion\partialviewing\fewlarge\control\fewlarge_partialViewing_control_bus7.png,mask_img/000000006146.png,experiment,w,w,970.8078281999915
4,19,Male,Right,189,Block 2,1.0579699999943841,0.05,true,bird,bird,occlusion,low,mask,partial viewing,few large,Stimulus\all_stim\occlusion\partialviewing\fewlarge\low\fewlarge_partialViewing_low_bird1.png,mask_img/000000023984.png,experiment,p,p,972.8152824999997
4,19,Male,Right,190,Block 2,1.0663292999961413,0.025,true,tree,tree,occlusion,high,mask,partial viewing,few large,Stimulus\all_stim\occlusion\partialviewing\fewlarge\high\fewlarge_partialViewing_high_tree4.png,mask_img/000000021981.png,experiment,q,q,974.7923038000008
4,19,Male,Right,191,Block 2,1.61976409998897,0.1,true,firehydrant,firehydrant,occlusion,control,mask,partial viewing,many small,Stimulus\all_stim\occlusion\partialviewing\manysmall\control\manysmall_partialViewing_control_firehydrant7.png,mask_img/000000039475.png,experiment,e,e,977.3436973999924
4,19,Male,Right,192,Block 2,1.4495281999988947,0.05,true,bus,bus,occlusion,high,mask,partial viewing,many small,Stimulus\all_stim\occlusion\partialviewing\manysmall\high\manysmall_partialViewing_high_bus7.png,mask_img/000000047471.png,experiment,w,w,979.551618700003
4,19,Male,Right,193,Block 2,1.2101413999916986,0.05,true,bus,bus,occlusion,control,mask,partial viewing,many small,Stimulus\all_stim\occlusion\partialviewing\manysmall\control\manysmall_partialViewing_control_bus9.png,mask_img/000000037864.png,experiment,w,w,981.7194240999961
4,19,Male,Right,194,Block 2,0.904848200007109,0.025,true,bird,bird,occlusion,control,mask,partial viewing,many small,Stimulus\all_stim\occlusion\partialviewing\manysmall\control\manysmall_partialViewing_control_bird4.png,mask_img/000000034691.png,experiment,p,p,983.6154527000035
4,19,Male,Right,195,Block 2,0.8781696000078227,0.1,true,bird,bird,occlusion,low,mask,partial viewing,few large,Stimulus\all_stim\occlusion\partialviewing\fewlarge\low\fewlarge_partialViewing_low_bird5.png,mask_img/000000024239.png,experiment,p,p,985.5915137999982
4,19,Male,Right,196,Block 2,0.8922211000026437,0.05,true,tree,tree,occlusion,high,mask,partial viewing,few large,Stimulus\all_stim\occlusion\partialviewing\fewlarge\high\fewlarge_partialViewing_high_tree4.png,mask_img/000000021981.png,experiment,q,q,987.1757459999935
4,19,Male,Right,197,Block 2,1.1533308000070974,0.05,true,banana,banana,occlusion,control,mask,partial viewing,few large,Stimulus\all_stim\occlusion\partialviewing\fewlarge\control\fewlarge_partialViewing_control_banana1.png,mask_img/000000000042.png,experiment,u,u,989.0957370999968
4,19,Male,Right,198,Block 2,1.4284674000082305,0.05,true,cat,cat,occlusion,high,mask,partial viewing,many small,Stimulus\all_stim\occlusion\partialviewing\manysmall\high\manysmall_partialViewing_high_cat7.png,mask_img/000000049602.png,experiment,o,o,991.1996272999968
4,19,Male,Right,199,Block 2,0.9160245999955805,0.05,true,bird,bird,occlusion,control,mask,partial viewing,many small,Stimulus\all_stim\occlusion\partialviewing\manysmall\control\manysmall_partialViewing_control_bird6.png,mask_img/000000034993.png,experiment,p,p,992.791708100005
4,19,Male,Right,200,Block 2,1.0005556999967666,0.1,true,bird,bird,occlusion,control,mask,partial viewing,few large,Stimulus\all_stim\occlusion\partialviewing\fewlarge\control\fewlarge_partialViewing_control_bird2.png,mask_img/000000001647.png,experiment,p,p,994.5755880999932
4,19,Male,Right,201,Block 2,0.8131448000058299,0.025,true,bird,bird,occlusion,control,mask,partial viewing,few large,Stimulus\all_stim\occlusion\partialviewing\fewlarge\control\fewlarge_partialViewing_control_bird4.png,mask_img/000000001997.png,experiment,p,p,996.1670527999959
4,19,Male,Right,202,Block 2,1.086475399992196,0.05,true,building,building,occlusion,high,mask,partial viewing,few large,Stimulus\all_stim\occlusion\partialviewing\fewlarge\high\fewlarge_partialViewing_high_building6.png,mask_img/000000014774.png,experiment,r,r,998.0554507000052
4,19,Male,Right,203,Block 2,1.0436942999949679,0.025,true,person,person,occlusion,control,mask,partial viewing,few large,Stimulus\all_stim\occlusion\partialviewing\fewlarge\control\fewlarge_partialViewing_control_person3.png,mask_img/000000008920.png,experiment,i,i,1000.1680749999941
4,19,Male,Right,204,Block 2,1.879477800001041,0.1,true,tree,tree,occlusion,high,mask,partial viewing,few large,Stimulus\all_stim\occlusion\partialviewing\fewlarge\high\fewlarge_partialViewing_high_tree1.png,mask_img/000000021206.png,experiment,q,q,1002.8875799999951
4,19,Male,Right,205,Block 2,1.5034931999980472,0.1,true,tree,tree,occlusion,control,mask,partial viewing,few large,Stimulus\all_stim\occlusion\partialviewing\fewlarge\control\fewlarge_partialViewing_control_tree6.png,mask_img/000000011328.png,experiment,q,q,1005.2479105999955
4,19,Male,Right,206,Block 2,1.1418599000026006,0.1,true,person,person,occlusion,high,mask,partial viewing,few large,Stimulus\all_stim\occlusion\partialviewing\fewlarge\high\fewlarge_partialViewing_high_person2.png,mask_img/000000019932.png,experiment,i,i,1007.4315965999995
4,19,Male,Right,207,Block 2,1.5786393000016687,0.05,true,bird,bird,occlusion,control,mask,partial viewing,many small,Stimulus\all_stim\occlusion\partialviewing\manysmall\control\manysmall_partialViewing_control_bird3.png,mask_img/000000034570.png,experiment,p,p,1010.1437074999994
4,19,Male,Right,208,Block 2,0.8304111000034027,0.025,false,bird,tree,occlusion,high,mask,partial viewing,many small,Stimulus\all_stim\occlusion\partialviewing\manysmall\high\manysmall_partialViewing_high_bird6.png,mask_img/000000044523.png,experiment,q,p,1012.0556811999995
4,19,Male,Right,209,Block 2,1.575871000008192,0.1,true,firehydrant,firehydrant,occlusion,low,mask,partial viewing,few large,Stimulus\all_stim\occlusion\partialviewing\fewlarge\low\fewlarge_partialViewing_low_firehydrant1.png,mask_img/000000028304.png,experiment,e,e,1014.4557430999994
4,19,Male,Right,210,Block 2,1.016868999999133,0.05,true,tree,tree,occlusion,control,mask,partial viewing,few large,Stimulus\all_stim\occlusion\partialviewing\fewlarge\control\fewlarge_partialViewing_control_tree4.png,mask_img/000000010969.png,experiment,q,q,1016.1274747999996
4,19,Male,Right,211,Block 2,0.9871882000006735,0.1,false,cat,tree,occlusion,high,mask,partial viewing,many small,Stimulus\all_stim\occlusion\partialviewing\manysmall\high\manysmall_partialViewing_high_cat4.png,mask_img/000000049331.png,experiment,q,o,1017.9918108999991
4,19,Male,Right,212,Block 2,1.9715537000010954,0.025,true,cat,cat,occlusion,control,mask,partial viewing,few large,Stimulus\all_stim\occlusion\partialviewing\fewlarge\control\fewlarge_partialViewing_control_cat6.png,mask_img/000000007179.png,experiment,o,o,1020.6318146999984
4,19,Male,Right,213,Block 2,2.2587360000034096,0.025,false,bus,person,occlusion,high,mask,partial viewing,few large,Stimulus\all_stim\occlusion\partialviewing\fewlarge\high\fewlarge_partialViewing_high_bus7.png,mask_img/000000016238.png,experiment,i,w,1023.6475705000048
4,19,Male,Right,214,Block 2,1.381729800006724,0.025,true,cat,cat,occlusion,low,mask,partial viewing,few large,Stimulus\all_stim\occlusion\partialviewing\fewlarge\low\fewlarge_partialViewing_low_cat3.png,mask_img/000000027556.png,experiment,o,o,1025.8719996
4,19,Male,Right,215,Block 2,1.6501943000039319,0.1,true,firehydrant,firehydrant,occlusion,low,mask,partial viewing,many small,Stimulus\all_stim\occlusion\partialviewing\manysmall\low\manysmall_partialViewing_low_firehydrant6.png,mask_img/000000060647.png,experiment,e,e,1028.6397838999983
4,19,Male,Right,216,Block 2,0.9925575999950524,0.1,false,bird,tree,occlusion,high,mask,partial viewing,many small,Stimulus\all_stim\occlusion\partialviewing\manysmall\high\manysmall_partialViewing_high_bird2.png,mask_img/000000044117.png,experiment,q,p,1030.4158901000046
4,19,Male,Right,217,Block 2,1.0781906999909552,0.025,true,building,building,occlusion,control,mask,partial viewing,many small,Stimulus\all_stim\occlusion\partialviewing\manysmall\control\manysmall_partialViewing_control_building4.png,mask_img/000000035985.png,experiment,r,r,1032.199930799994
4,19,Male,Right,218,Block 2,0.8788047999987612,0.1,true,bird,bird,occlusion,low,mask,partial viewing,many small,Stimulus\all_stim\occlusion\partialviewing\manysmall\low\manysmall_partialViewing_low_bird1.png,mask_img/000000055694.png,experiment,p,p,1034.0316730999912
4,19,Male,Right,219,Block 2,0.8963873000029707,0.05,true,building,building,occlusion,control,mask,partial viewing,few large,Stimulus\all_stim\occlusion\partialviewing\fewlarge\control\fewlarge_partialViewing_control_building7.png,mask_img/000000004936.png,experiment,r,r,1035.8635721000028
4,19,Male,Right,220,Block 2,1.090054100000998,0.1,true,banana,banana,occlusion,low,mask,partial viewing,few large,Stimulus\all_stim\occlusion\partialviewing\fewlarge\low\fewlarge_partialViewing_low_banana10.png,mask_img/000000022563.png,experiment,u,u,1037.7997569
4,19,Male,Right,221,Block 2,1.0665160000062315,0.05,true,firehydrant,firehydrant,occlusion,control,mask,partial viewing,many small,Stimulus\all_stim\occlusion\partialviewing\manysmall\control\manysmall_partialViewing_control_firehydrant5.png,mask_img/000000039211.png,experiment,e,e,1039.6155672000023
4,19,Male,Right,222,Block 2,0.8778491999983089,0.05,true,banana,banana,occlusion,control,mask,partial viewing,many small,Stimulus\all_stim\occlusion\partialviewing\manysmall\control\manysmall_partialViewing_control_banana2.png,mask_img/000000033126.png,experiment,u,u,1041.583429899998
4,19,Male,Right,223,Block 2,0.8943539000028977,0.025,true,building,building,occlusion,control,mask,partial viewing,few large,Stimulus\all_stim\occlusion\partialviewing\fewlarge\control\fewlarge_partialViewing_control_building2.png,mask_img/000000003483.png,experiment,r,r,1043.3198981000023
4,19,Male,Right,224,Block 2,0.8710670000000391,0.05,true,tree,tree,occlusion,high,mask,partial viewing,many small,Stimulus\all_stim\occlusion\partialviewing\manysmall\high\manysmall_partialViewing_high_tree3.png,mask_img/000000052936.png,experiment,q,q,1045.0795854000025
4,19,Male,Right,225,Block 2,1.6804573999979766,0.1,true,bus,bus,occlusion,low,mask,partial viewing,few large,Stimulus\all_stim\occlusion\partialviewing\fewlarge\low\fewlarge_partialViewing_low_bus2.png,mask_img/000000025858.png,experiment,w,w,1047.7198689999932
4,19,Male,Right,226,Block 2,1.1742344999947818,0.1,true,banana,banana,occlusion,low,mask,partial viewing,few large,Stimulus\all_stim\occlusion\partialviewing\fewlarge\low\fewlarge_partialViewing_low_banana5.png,mask_img/000000023100.png,experiment,u,u,1050.039914699999
4,19,Male,Right,227,Block 2,0.9834926000039559,0.1,true,tree,tree,occlusion,high,mask,partial viewing,many small,Stimulus\all_stim\occlusion\partialviewing\manysmall\high\manysmall_partialViewing_high_tree3.png,mask_img/000000052936.png,experiment,q,q,1051.9275277999986
4,19,Male,Right,228,Block 2,0.9011310000059893,0.1,true,bird,bird,occlusion,control,mask,partial viewing,many small,Stimulus\all_stim\occlusion\partialviewing\manysmall\control\manysmall_partialViewing_control_bird5.png,mask_img/000000034930.png,experiment,p,p,1053.607746099995
4,19,Male,Right,229,Block 2,0.9574034999968717,0.05,true,tree,tree,occlusion,low,mask,partial viewing,many small,Stimulus\all_stim\occlusion\partialviewing\manysmall\low\manysmall_partialViewing_low_tree3.png,mask_img/000000063147.png,experiment,q,q,1055.2633682000014
4,19,Male,Right,230,Block 2,1.0135319999972126,0.1,true,firehydrant,firehydrant,occlusion,control,mask,partial viewing,few large,Stimulus\all_stim\occlusion\partialviewing\fewlarge\control\fewlarge_partialViewing_control_firehydrant1.png,mask_img/000000007740.png,experiment,e,e,1057.0476605000003
4,19,Male,Right,231,Block 2,0.9773487000056775,0.1,true,tree,tree,occlusion,high,mask,partial viewing,few large,Stimulus\all_stim\occlusion\partialviewing\fewlarge\high\fewlarge_partialViewing_high_tree9.png,mask_img/000000022440.png,experiment,q,q,1058.991642699999
4,19,Male,Right,232,Block 2,0.871312700008275,0.025,true,banana,banana,occlusion,high,mask,partial viewing,few large,Stimulus\all_stim\occlusion\partialviewing\fewlarge\high\fewlarge_partialViewing_high_banana2.png,mask_img/000000012179.png,experiment,u,u,1060.9353743999964
4,19,Male,Right,233,Block 2,0.8664666999975452,0.1,true,building,building,occlusion,control,mask,partial viewing,many small,Stimulus\all_stim\occlusion\partialviewing\manysmall\control\manysmall_partialViewing_control_building2.png,mask_img/000000035864.png,experiment,r,r,1062.7117377999966
4,19,Male,Right,234,Block 2,2.0573485999921104,0.1,true,person,person,occlusion,control,mask,partial viewing,many small,Stimulus\all_stim\occlusion\partialviewing\manysmall\control\manysmall_partialViewing_control_person3.png,mask_img/000000040008.png,experiment,i,i,1065.559439100005
4,19,Male,Right,235,Block 2,1.065476400006446,0.025,true,building,building,occlusion,low,mask,partial viewing,few large,Stimulus\all_stim\occlusion\partialviewing\fewlarge\low\fewlarge_partialViewing_low_building7.png,mask_img/000000025192.png,experiment,r,r,1067.2876638000016
4,19,Male,Right,236,Block 2,1.148544399999082,0.1,true,firehydrant,firehydrant,occlusion,low,mask,partial viewing,few large,Stimulus\all_stim\occlusion\partialviewing\fewlarge\low\fewlarge_partialViewing_low_firehydrant4.png,mask_img/000000028671.png,experiment,e,e,1069.5594853999937
4,19,Male,Right,237,Block 2,0.9657797000108985,0.1,true,firehydrant,firehydrant,occlusion,low,mask,partial viewing,many small,Stimulus\all_stim\occlusion\partialviewing\manysmall\low\manysmall_partialViewing_low_firehydrant9.png,mask_img/000000061693.png,experiment,e,e,1071.2238705000054
4,19,Male,Right,238,Block 2,1.40381509999861,0.025,true,banana,banana,occlusion,low,mask,partial viewing,few large,Stimulus\all_stim\occlusion\partialviewing\fewlarge\low\fewlarge_partialViewing_low_banana2.png,mask_img/000000022983.png,experiment,u,u,1073.5672802000045
4,19,Male,Right,239,Block 2,0.9444914999912726,0.1,true,bird,bird,occlusion,high,mask,partial viewing,few large,Stimulus\all_stim\occlusion\partialviewing\fewlarge\high\fewlarge_partialViewing_high_bird5.png,mask_img/000000013914.png,experiment,p,p,1075.2956784999988
4,19,Male,Right,240,Block 2,1.1443823000008706,0.1,true,firehydrant,firehydrant,occlusion,low,mask,partial viewing,many small,Stimulus\all_stim\occlusion\partialviewing\manysmall\low\manysmall_partialViewing_low_firehydrant1.png,mask_img/000000060464.png,experiment,e,e,1077.2239736000047
4,19,Male,Right,241,Block 2,2.3567028999968898,0.025,true,cat,cat,occlusion,high,mask,partial viewing,few large,Stimulus\all_stim\occlusion\partialviewing\fewlarge\high\fewlarge_partialViewing_high_cat4.png,mask_img/000000017364.png,experiment,o,o,1080.4797094999958
4,19,Male,Right,242,Block 2,1.4098564000014449,0.025,true,firehydrant,firehydrant,occlusion,high,mask,partial viewing,many small,Stimulus\all_stim\occlusion\partialviewing\manysmall\high\manysmall_partialViewing_high_firehydrant9.png,mask_img/000000051164.png,experiment,e,e,1082.887472100003
4,19,Male,Right,243,Block 2,2.22042220000003,0.05,true,bus,bus,occlusion,high,mask,partial viewing,few large,Stimulus\all_stim\occlusion\partialviewing\fewlarge\high\fewlarge_partialViewing_high_bus6.png,mask_img/000000015987.png,experiment,w,w,1086.0557421999983
4,19,Male,Right,244,Block 2,0.9722779000003356,0.05,true,tree,tree,occlusion,low,mask,partial viewing,many small,Stimulus\all_stim\occlusion\partialviewing\manysmall\low\manysmall_partialViewing_low_tree9.png,mask_img/000000063867.png,experiment,q,q,1088.063503199999
4,19,Male,Right,245,Block 2,1.1115355000074487,0.1,true,bus,bus,occlusion,control,mask,partial viewing,many small,Stimulus\all_stim\occlusion\partialviewing\manysmall\control\manysmall_partialViewing_control_bus2.png,mask_img/000000036622.png,experiment,w,w,1089.9677618999995
4,19,Male,Right,246,Block 2,1.2717028000042774,0.1,false,firehydrant,building,occlusion,control,mask,partial viewing,few large,Stimulus\all_stim\occlusion\partialviewing\fewlarge\control\fewlarge_partialViewing_control_firehydrant10.png,mask_img/000000007758.png,experiment,r,e,1092.3280686999933
4,19,Male,Right,247,Block 2,1.1622574999928474,0.025,true,bus,bus,occlusion,control,mask,partial viewing,many small,Stimulus\all_stim\occlusion\partialviewing\manysmall\control\manysmall_partialViewing_control_bus2.png,mask_img/000000036622.png,experiment,w,w,1094.4156342999922
4,19,Male,Right,248,Block 2,1.2200250000023516,0.1,true,person,person,occlusion,low,mask,partial viewing,few large,Stimulus\all_stim\occlusion\partialviewing\fewlarge\low\fewlarge_partialViewing_low_person6.png,mask_img/000000030267.png,experiment,i,i,1096.503928399994
4,19,Male,Right,249,Block 2,0.9839805999945384,0.05,true,building,building,occlusion,control,mask,partial viewing,many small,Stimulus\all_stim\occlusion\partialviewing\manysmall\control\manysmall_partialViewing_control_building7.png,mask_img/000000036029.png,experiment,r,r,1098.423851700005
4,19,Male,Right,250,Block 2,1.3981787999946391,0.05,false,person,banana,occlusion,high,mask,partial viewing,many small,Stimulus\all_stim\occlusion\partialviewing\manysmall\high\manysmall_partialViewing_high_person4.png,mask_img/000000052087.png,experiment,u,i,1100.7274449999968
4,19,Male,Right,251,Block 2,0.9121451999963028,0.025,true,banana,banana,occlusion,control,mask,partial viewing,few large,Stimulus\all_stim\occlusion\partialviewing\fewlarge\control\fewlarge_partialViewing_control_banana1.png,mask_img/000000000042.png,experiment,u,u,1102.463517199998
4,19,Male,Right,252,Block 2,0.9056802999984939,0.025,true,tree,tree,occlusion,low,mask,partial viewing,many small,Stimulus\all_stim\occlusion\partialviewing\manysmall\low\manysmall_partialViewing_low_tree6.png,mask_img/000000063715.png,experiment,q,q,1104.207838599992
4,19,Male,Right,253,Block 2,1.194939599998179,0.1,true,firehydrant,firehydrant,occlusion,control,mask,partial viewing,few large,Stimulus\all_stim\occlusion\partialviewing\fewlarge\control\fewlarge_partialViewing_control_firehydrant8.png,mask_img/000000008193.png,experiment,e,e,1106.335894399992
4,19,Male,Right,254,Block 2,0.940045099996496,0.05,true,bus,bus,occlusion,control,mask,partial viewing,many small,Stimulus\all_stim\occlusion\partialviewing\manysmall\control\manysmall_partialViewing_control_bus7.png,mask_img/000000037339.png,experiment,w,w,1107.9837647999957
4,19,Male,Right,255,Block 2,0.9059426000021631,0.025,true,bus,bus,occlusion,low,mask,partial viewing,many small,Stimulus\all_stim\occlusion\partialviewing\manysmall\low\manysmall_partialViewing_low_bus1.png,mask_img/000000058232.png,experiment,w,w,1109.7273290000012
4,19,Male,Right,256,Block 2,0.9092628000071272,0.05,true,building,building,occlusion,high,mask,partial viewing,many small,Stimulus\all_stim\occlusion\partialviewing\manysmall\high\manysmall_partialViewing_high_building9.png,mask_img/000000046345.png,experiment,r,r,1111.3116496000002
4,19,Male,Right,257,Block 2,0.9914564000064274,0.05,true,bus,bus,occlusion,low,mask,partial viewing,many small,Stimulus\all_stim\occlusion\partialviewing\manysmall\low\manysmall_partialViewing_low_bus10.png,mask_img/000000058595.png,experiment,w,w,1113.0633511999913
4,19,Male,Right,258,Block 2,0.9278053000016371,0.1,true,building,building,occlusion,high,mask,partial viewing,many small,Stimulus\all_stim\occlusion\partialviewing\manysmall\high\manysmall_partialViewing_high_building10.png,mask_img/000000044989.png,experiment,r,r,1115.0956846000045
4,19,Male,Right,259,Block 2,0.8852710999926785,0.05,true,tree,tree,occlusion,control,mask,partial viewing,few large,Stimulus\all_stim\occlusion\partialviewing\fewlarge\control\fewlarge_partialViewing_control_tree10.png,mask_img/000000010414.png,experiment,q,q,1116.7595407000044
4,19,Male,Right,260,Block 2,0.9760620999877574,0.05,true,bird,bird,occlusion,control,mask,partial viewing,many small,Stimulus\all_stim\occlusion\partialviewing\manysmall\control\manysmall_partialViewing_control_bird10.png,mask_img/000000034304.png,experiment,p,p,1118.6152258999937
4,19,Male,Right,261,Block 2,1.9700213000032818,0.1,true,person,person,occlusion,high,mask,partial viewing,many small,Stimulus\all_stim\occlusion\partialviewing\manysmall\high\manysmall_partialViewing_high_person2.png,mask_img/000000051461.png,experiment,i,i,1121.3915359999955
4,19,Male,Right,262,Block 2,0.9620319999958156,0.1,true,building,building,occlusion,control,mask,partial viewing,many small,Stimulus\all_stim\occlusion\partialviewing\manysmall\control\manysmall_partialViewing_control_building9.png,mask_img/000000036226.png,experiment,r,r,1123.0152208999934
4,19,Male,Right,263,Block 2,1.2653595000010682,0.025,true,banana,banana,occlusion,high,mask,partial viewing,many small,Stimulus\all_stim\occlusion\partialviewing\manysmall\high\manysmall_partialViewing_high_banana5.png,mask_img/000000042541.png,experiment,u,u,1125.3356853000005
4,19,Male,Right,264,Block 2,0.8136220000014873,0.025,true,banana,banana,occlusion,high,mask,partial viewing,many small,Stimulus\all_stim\occlusion\partialviewing\manysmall\high\manysmall_partialViewing_high_banana1.png,mask_img/000000041962.png,experiment,u,u,1126.8070477
4,19,Male,Right,265,Block 2,0.9026174000027822,0.025,false,cat,banana,occlusion,high,mask,partial viewing,many small,Stimulus\all_stim\occlusion\partialviewing\manysmall\high\manysmall_partialViewing_high_cat6.png,mask_img/000000049562.png,experiment,u,o,1128.7430520000053
4,19,Male,Right,266,Block 2,0.8827135999890743,0.05,true,building,building,occlusion,high,mask,partial viewing,many small,Stimulus\all_stim\occlusion\partialviewing\manysmall\high\manysmall_partialViewing_high_building8.png,mask_img/000000046245.png,experiment,r,r,1130.4796301000024
4,19,Male,Right,267,Block 2,0.8741497000009986,0.1,true,banana,banana,occlusion,control,mask,partial viewing,many small,Stimulus\all_stim\occlusion\partialviewing\manysmall\control\manysmall_partialViewing_control_banana4.png,mask_img/000000033667.png,experiment,u,u,1132.231396999996
4,19,Male,Right,268,Block 2,0.9340099999972153,0.1,true,tree,tree,occlusion,high,mask,partial viewing,few large,Stimulus\all_stim\occlusion\partialviewing\fewlarge\high\fewlarge_partialViewing_high_tree2.png,mask_img/000000021641.png,experiment,q,q,1134.0237589000026
4,19,Male,Right,269,Block 2,1.6595961999992142,0.05,true,building,building,occlusion,low,mask,partial viewing,many small,Stimulus\all_stim\occlusion\partialviewing\manysmall\low\manysmall_partialViewing_low_building6.png,mask_img/000000057979.png,experiment,r,r,1136.3831634999951
4,19,Male,Right,270,Block 2,0.9101095999940298,0.1,true,building,building,occlusion,control,mask,partial viewing,few large,Stimulus\all_stim\occlusion\partialviewing\fewlarge\control\fewlarge_partialViewing_control_building8.png,mask_img/000000005105.png,experiment,r,r,1138.2556036000024
4,19,Male,Right,271,Block 2,0.8092899000039324,0.025,true,building,building,occlusion,control,mask,partial viewing,many small,Stimulus\all_stim\occlusion\partialviewing\manysmall\control\manysmall_partialViewing_control_building6.png,mask_img/000000036006.png,experiment,r,r,1140.151231099997
4,19,Male,Right,272,Block 2,0.8645247000094969,0.025,true,tree,tree,occlusion,high,mask,partial viewing,many small,Stimulus\all_stim\occlusion\partialviewing\manysmall\high\manysmall_partialViewing_high_tree3.png,mask_img/000000052936.png,experiment,q,q,1141.8637439000013
4,19,Male,Right,273,Block 2,1.231047600012971,0.025,false,bus,building,occlusion,high,mask,partial viewing,many small,Stimulus\all_stim\occlusion\partialviewing\manysmall\high\manysmall_partialViewing_high_bus9.png,mask_img/000000048268.png,experiment,r,w,1143.8878148999938
4,19,Male,Right,274,Block 2,1.0175291999912588,0.05,true,bus,bus,occlusion,low,mask,partial viewing,many small,Stimulus\all_stim\occlusion\partialviewing\manysmall\low\manysmall_partialViewing_low_bus3.png,mask_img/000000058647.png,experiment,w,w,1145.6077569000045
4,19,Male,Right,275,Block 2,0.8639390000025742,0.025,true,bus,bus,occlusion,control,mask,partial viewing,few large,Stimulus\all_stim\occlusion\partialviewing\fewlarge\control\fewlarge_partialViewing_control_bus4.png,mask_img/000000005574.png,experiment,w,w,1147.3996399000025
4,19,Male,Right,276,Block 2,0.9438571999926353,0.05,false,firehydrant,building,occlusion,high,mask,partial viewing,many small,Stimulus\all_stim\occlusion\partialviewing\manysmall\high\manysmall_partialViewing_high_firehydrant3.png,mask_img/000000050276.png,experiment,r,e,1149.3594574000017
4,19,Male,Right,277,Block 2,0.933725000009872,0.05,true,building,building,occlusion,low,mask,partial viewing,few large,Stimulus\all_stim\occlusion\partialviewing\fewlarge\low\fewlarge_partialViewing_low_building3.png,mask_img/000000024808.png,experiment,r,r,1151.1831954999943
4,19,Male,Right,278,Block 2,0.9491305999981705,0.05,false,bus,building,occlusion,high,mask,partial viewing,many small,Stimulus\all_stim\occlusion\partialviewing\manysmall\high\manysmall_partialViewing_high_bus10.png,mask_img/000000046805.png,experiment,r,w,1153.015839899992
4,19,Male,Right,279,Block 2,1.7715925999946194,0.025,true,cat,cat,occlusion,low,mask,partial viewing,many small,Stimulus\all_stim\occlusion\partialviewing\manysmall\low\manysmall_partialViewing_low_cat5.png,mask_img/000000059660.png,experiment,o,o,1155.631897500003
4,19,Male,Right,280,Block 2,0.8812711000064155,0.025,false,cat,tree,occlusion,high,mask,partial viewing,many small,Stimulus\all_stim\occlusion\partialviewing\manysmall\high\manysmall_partialViewing_high_cat10.png,mask_img/000000048929.png,experiment,q,o,1157.6391281999968
4,19,Male,Right,281,Block 2,1.5731463999982225,0.1,true,cat,cat,occlusion,control,mask,partial viewing,few large,Stimulus\all_stim\occlusion\partialviewing\fewlarge\control\fewlarge_partialViewing_control_cat2.png,mask_img/000000006489.png,experiment,o,o,1159.8796736999939
4,19,Male,Right,282,Block 2,1.0241454000060912,0.05,true,banana,banana,occlusion,low,mask,partial viewing,many small,Stimulus\all_stim\occlusion\partialviewing\manysmall\low\manysmall_partialViewing_low_banana9.png,mask_img/000000055652.png,experiment,u,u,1161.8631538000045
4,19,Male,Right,283,Block 2,1.0027922000008402,0.1,true,building,building,occlusion,high,mask,partial viewing,few large,Stimulus\all_stim\occlusion\partialviewing\fewlarge\high\fewlarge_partialViewing_high_building3.png,mask_img/000000014567.png,experiment,r,r,1163.8235609999974
4,19,Male,Right,284,Block 2,1.6540182000026107,0.05,true,person,person,occlusion,low,mask,partial viewing,many small,Stimulus\all_stim\occlusion\partialviewing\manysmall\low\manysmall_partialViewing_low_person2.png,mask_img/000000061867.png,experiment,i,i,1166.2713880999945
4,19,Male,Right,285,Block 2,1.0100074999936623,0.025,true,bird,bird,occlusion,control,mask,partial viewing,few large,Stimulus\all_stim\occlusion\partialviewing\fewlarge\control\fewlarge_partialViewing_control_bird3.png,mask_img/000000001810.png,experiment,p,p,1168.1514358999993
4,19,Male,Right,286,Block 2,0.9802609000034863,0.05,false,person,tree,occlusion,high,mask,partial viewing,few large,Stimulus\all_stim\occlusion\partialviewing\fewlarge\high\fewlarge_partialViewing_high_person1.png,mask_img/000000019759.png,experiment,q,i,1169.9036674999952
4,19,Male,Right,287,Block 2,1.4205227000056766,0.025,true,building,building,occlusion,low,mask,partial viewing,many small,Stimulus\all_stim\occlusion\partialviewing\manysmall\low\manysmall_partialViewing_low_building9.png,mask_img/000000058102.png,experiment,r,r,1172.247216200005
4,19,Male,Right,288,Block 2,1.988409400000819,0.025,true,person,person,occlusion,low,mask,partial viewing,few large,Stimulus\all_stim\occlusion\partialviewing\fewlarge\low\fewlarge_partialViewing_low_person5.png,mask_img/000000029964.png,experiment,i,i,1199.1114429000008
4,19,Male,Right,289,Block 3,1.0169561999937287,0.025,true,firehydrant,firehydrant,occlusion,control,mask,partial viewing,many small,Stimulus\all_stim\occlusion\partialviewing\manysmall\control\manysmall_partialViewing_control_firehydrant1.png,mask_img/000000039012.png,experiment,e,e,1201.1116011999984
4,19,Male,Right,290,Block 3,0.8977404000033857,0.025,true,bird,bird,occlusion,control,mask,partial viewing,few large,Stimulus\all_stim\occlusion\partialviewing\fewlarge\control\fewlarge_partialViewing_control_bird9.png,mask_img/000000002892.png,experiment,p,p,1203.1432510000013
4,19,Male,Right,291,Block 3,1.3918028000043705,0.05,true,bus,bus,occlusion,control,mask,partial viewing,few large,Stimulus\all_stim\occlusion\partialviewing\fewlarge\control\fewlarge_partialViewing_control_bus5.png,mask_img/000000005615.png,experiment,w,w,1205.407427500002
4,19,Male,Right,292,Block 3,1.2474955000070622,0.05,true,firehydrant,firehydrant,occlusion,low,mask,partial viewing,many small,Stimulus\all_stim\occlusion\partialviewing\manysmall\low\manysmall_partialViewing_low_firehydrant6.png,mask_img/000000060647.png,experiment,e,e,1207.423179000005
4,19,Male,Right,293,Block 3,0.9797013999923365,0.1,true,firehydrant,firehydrant,occlusion,high,mask,partial viewing,many small,Stimulus\all_stim\occlusion\partialviewing\manysmall\high\manysmall_partialViewing_high_firehydrant9.png,mask_img/000000051164.png,experiment,e,e,1209.2718595000042
4,19,Male,Right,294,Block 3,1.3132534000033047,0.025,true,bus,bus,occlusion,high,mask,partial viewing,many small,Stimulus\all_stim\occlusion\partialviewing\manysmall\high\manysmall_partialViewing_high_bus5.png,mask_img/000000047395.png,experiment,w,w,1211.4952252999938
4,19,Male,Right,295,Block 3,1.0788260999979684,0.1,true,bird,bird,occlusion,control,mask,partial viewing,few large,Stimulus\all_stim\occlusion\partialviewing\fewlarge\control\fewlarge_partialViewing_control_bird1.png,mask_img/000000000873.png,experiment,p,p,1213.367301499995
4,19,Male,Right,296,Block 3,1.462047099994379,0.025,true,firehydrant,firehydrant,occlusion,low,mask,partial viewing,many small,Stimulus\all_stim\occlusion\partialviewing\manysmall\low\manysmall_partialViewing_low_firehydrant4.png,mask_img/000000060610.png,experiment,e,e,1215.7272758000036
4,19,Male,Right,297,Block 3,1.249546699997154,0.1,true,tree,tree,occlusion,control,mask,partial viewing,few large,Stimulus\all_stim\occlusion\partialviewing\fewlarge\control\fewlarge_partialViewing_control_tree7.png,mask_img/000000011504.png,experiment,q,q,1217.8082289000013
4,19,Male,Right,298,Block 3,1.0246882999927038,0.025,false,firehydrant,bird,occlusion,high,mask,partial viewing,many small,Stimulus\all_stim\occlusion\partialviewing\manysmall\high\manysmall_partialViewing_high_firehydrant6.png,mask_img/000000050782.png,experiment,p,e,1219.7516537000047
4,19,Male,Right,299,Block 3,0.9515482999995584,0.025,true,banana,banana,occlusion,low,mask,partial viewing,few large,Stimulus\all_stim\occlusion\partialviewing\fewlarge\low\fewlarge_partialViewing_low_banana9.png,mask_img/000000023967.png,experiment,u,u,1221.7354902999941
4,19,Male,Right,300,Block 3,1.9310407000011764,0.025,true,cat,cat,occlusion,high,mask,partial viewing,few large,Stimulus\all_stim\occlusion\partialviewing\fewlarge\high\fewlarge_partialViewing_high_cat8.png,mask_img/000000017791.png,experiment,o,o,1224.7518903000018
4,19,Male,Right,301,Block 3,1.437678500005859,0.025,true,bus,bus,occlusion,low,mask,partial viewing,many small,Stimulus\all_stim\occlusion\partialviewing\manysmall\low\manysmall_partialViewing_low_bus10.png,mask_img/000000058595.png,experiment,w,w,1227.0715045999968
4,19,Male,Right,302,Block 3,0.9348269999900367,0.05,true,building,building,occlusion,high,mask,partial viewing,few large,Stimulus\all_stim\occlusion\partialviewing\fewlarge\high\fewlarge_partialViewing_high_building2.png,mask_img/000000014472.png,experiment,r,r,1228.9593598999927
4,19,Male,Right,303,Block 3,2.4763808000134304,0.1,true,banana,banana,occlusion,low,mask,partial viewing,few large,Stimulus\all_stim\occlusion\partialviewing\fewlarge\low\fewlarge_partialViewing_low_banana2.png,mask_img/000000022983.png,experiment,u,u,1232.392015000005
4,19,Male,Right,304,Block 3,1.4422792999976082,0.05,true,firehydrant,firehydrant,occlusion,low,mask,partial viewing,many small,Stimulus\all_stim\occlusion\partialviewing\manysmall\low\manysmall_partialViewing_low_firehydrant4.png,mask_img/000000060610.png,experiment,e,e,1234.9759512000019
4,19,Male,Right,305,Block 3,0.9927142999949865,0.05,true,building,building,occlusion,high,mask,partial viewing,many small,Stimulus\all_stim\occlusion\partialviewing\manysmall\high\manysmall_partialViewing_high_building10.png,mask_img/000000044989.png,experiment,r,r,1237.0636277000012
4,19,Male,Right,306,Block 3,1.4234088999946835,0.1,true,cat,cat,occlusion,low,mask,partial viewing,few large,Stimulus\all_stim\occlusion\partialviewing\fewlarge\low\fewlarge_partialViewing_low_cat6.png,mask_img/000000027764.png,experiment,o,o,1239.447992500005
4,19,Male,Right,307,Block 3,1.7008657999977004,0.05,true,firehydrant,firehydrant,occlusion,high,mask,partial viewing,few large,Stimulus\all_stim\occlusion\partialviewing\fewlarge\high\fewlarge_partialViewing_high_firehydrant4.png,mask_img/000000018882.png,experiment,e,e,1242.1199655999953
4,19,Male,Right,308,Block 3,0.9501269000029424,0.1,true,tree,tree,occlusion,control,mask,partial viewing,few large,Stimulus\all_stim\occlusion\partialviewing\fewlarge\control\fewlarge_partialViewing_control_tree8.png,mask_img/000000011544.png,experiment,q,q,1244.1837913999916
4,19,Male,Right,309,Block 3,1.3174823000008473,0.1,true,person,person,occlusion,low,mask,partial viewing,few large,Stimulus\all_stim\occlusion\partialviewing\fewlarge\low\fewlarge_partialViewing_low_person9.png,mask_img/000000031017.png,experiment,i,i,1246.5036368
4,19,Male,Right,310,Block 3,1.2343080999999074,0.025,true,bird,bird,occlusion,control,mask,partial viewing,few large,Stimulus\all_stim\occlusion\partialviewing\fewlarge\control\fewlarge_partialViewing_control_bird5.png,mask_img/000000002197.png,experiment,p,p,1248.5277092000033
4,19,Male,Right,311,Block 3,1.1051732999912929,0.1,true,bird,bird,occlusion,control,mask,partial viewing,many small,Stimulus\all_stim\occlusion\partialviewing\manysmall\control\manysmall_partialViewing_control_bird10.png,mask_img/000000034304.png,experiment,p,p,1250.759528900002
4,19,Male,Right,312,Block 3,1.5546519000054104,0.1,false,cat,bird,occlusion,low,mask,partial viewing,many small,Stimulus\all_stim\occlusion\partialviewing\manysmall\low\manysmall_partialViewing_low_cat10.png,mask_img/000000059046.png,experiment,p,o,1253.3349879000016
4,19,Male,Right,313,Block 3,1.10546270001214,0.1,true,firehydrant,firehydrant,occlusion,high,mask,partial viewing,few large,Stimulus\all_stim\occlusion\partialviewing\fewlarge\high\fewlarge_partialViewing_high_firehydrant4.png,mask_img/000000018882.png,experiment,e,e,1255.4552943000017
4,19,Male,Right,314,Block 3,1.4883279000059702,0.1,true,person,person,occlusion,high,mask,partial viewing,few large,Stimulus\all_stim\occlusion\partialviewing\fewlarge\high\fewlarge_partialViewing_high_person4.png,mask_img/000000020202.png,experiment,i,i,1257.6235065999936
4,19,Male,Right,315,Block 3,0.9330247000034433,0.05,true,person,person,occlusion,high,mask,partial viewing,few large,Stimulus\all_stim\occlusion\partialviewing\fewlarge\high\fewlarge_partialViewing_high_person4.png,mask_img/000000020202.png,experiment,i,i,1259.583709700004
4,19,Male,Right,316,Block 3,0.9024466999981087,0.1,true,building,building,occlusion,high,mask,partial viewing,many small,Stimulus\all_stim\occlusion\partialviewing\manysmall\high\manysmall_partialViewing_high_building3.png,mask_img/000000045655.png,experiment,r,r,1261.3682973999967
4,19,Male,Right,317,Block 3,0.9961081000074046,0.05,true,firehydrant,firehydrant,occlusion,control,mask,partial viewing,many small,Stimulus\all_stim\occlusion\partialviewing\manysmall\control\manysmall_partialViewing_control_firehydrant9.png,mask_img/000000039643.png,experiment,e,e,1263.3830242999975
4,19,Male,Right,318,Block 3,1.0042341000080341,0.1,true,banana,banana,occlusion,control,mask,partial viewing,many small,Stimulus\all_stim\occlusion\partialviewing\manysmall\control\manysmall_partialViewing_control_banana5.png,mask_img/000000033669.png,experiment,u,u,1265.1292517999973
4,19,Male,Right,319,Block 3,0.9442550999956438,0.1,true,tree,tree,occlusion,high,mask,partial viewing,many small,Stimulus\all_stim\occlusion\partialviewing\manysmall\high\manysmall_partialViewing_high_tree2.png,mask_img/000000052901.png,experiment,q,q,1266.8796269000013
4,19,Male,Right,320,Block 3,2.076495300003444,0.025,true,banana,banana,occlusion,control,mask,partial viewing,few large,Stimulus\all_stim\occlusion\partialviewing\fewlarge\control\fewlarge_partialViewing_control_banana3.png,mask_img/000000000394.png,experiment,u,u,1269.7913440999982
4,19,Male,Right,321,Block 3,1.4005602000106592,0.025,true,firehydrant,firehydrant,occlusion,low,mask,partial viewing,many small,Stimulus\all_stim\occlusion\partialviewing\manysmall\low\manysmall_partialViewing_low_firehydrant3.png,mask_img/000000060572.png,experiment,e,e,1272.0869816999912
4,19,Male,Right,322,Block 3,0.9955579999950714,0.05,true,building,building,occlusion,low,mask,partial viewing,many small,Stimulus\all_stim\occlusion\partialviewing\manysmall\low\manysmall_partialViewing_low_building5.png,mask_img/000000057930.png,experiment,r,r,1274.1516682999936
4,19,Male,Right,323,Block 3,1.0171043000009377,0.025,true,building,building,occlusion,control,mask,partial viewing,few large,Stimulus\all_stim\occlusion\partialviewing\fewlarge\control\fewlarge_partialViewing_control_building5.png,mask_img/000000004642.png,experiment,r,r,1276.0478579000046
