Version,pt_num,Age,Gender,Handedness,trial_nbr,block_number,rt,soa,acc,category,choiced_category,manipulation,difficulty,mask,type_occl,size_occl,filename,mask_filename,task,pressed_key,correct_key,Experiment Duration
V3,10,29,Male,Right,1,Training,2.971056399997906,0.025,true,person,person,occlusion,low,mask,partial viewing,few large,Training_Stimulus\fewlarge_partialViewing_low_person189.png,mask_img/000000003483.png,training,e,e,366.87704370000574
V3,10,29,Male,Right,2,Training,3.2407487999880686,0.1,false,banana,building,occlusion,low,mask,partial viewing,few large,Training_Stimulus\fewlarge_partialViewing_low_banana454.png,mask_img/000000002337.png,training,q,w,371.393553300004
V3,10,29,Male,Right,3,Training,1.4584731000068132,0.1,true,building,building,occlusion,high,mask,partial viewing,few large,Training_Stimulus\fewlarge_partialViewing_high_building24.png,mask_img/000000000873.png,training,q,q,374.1747092000005
V3,10,29,Male,Right,4,Training,2.0804368000099203,0.025,true,firehydrant,firehydrant,occlusion,control,mask,partial viewing,many small,Training_Stimulus\manysmall_partialViewing_control_firehydrant90.png,mask_img/000000005131.png,training,i,i,377.81536570000753
V3,10,29,Male,Right,5,Training,2.6898949000024004,0.025,true,tree,tree,occlusion,low,mask,partial viewing,few large,Training_Stimulus\fewlarge_partialViewing_low_tree9.png,mask_img/000000003694.png,training,r,r,381.7698195999983
V3,10,29,Male,Right,6,Training,1.2859822000027634,0.025,true,building,building,occlusion,low,mask,partial viewing,few large,Training_Stimulus\fewlarge_partialViewing_low_building24.png,mask_img/000000002822.png,training,q,q,384.5823335000023
V3,10,29,Male,Right,7,Training,1.66242800001055,0.1,true,tree,tree,occlusion,low,mask,partial viewing,many small,Training_Stimulus\manysmall_partialViewing_low_tree9.png,mask_img/000000007325.png,training,r,r,387.67607100000896
V3,10,29,Male,Right,8,Training,3.295419399990351,0.025,false,firehydrant,bus,occlusion,high,mask,partial viewing,many small,Training_Stimulus\manysmall_partialViewing_high_firehydrant90.png,mask_img/000000006146.png,training,o,i,392.11917849999736
V3,10,29,Male,Right,9,Training,1.907634600007441,0.025,true,firehydrant,firehydrant,occlusion,control,mask,partial viewing,few large,Training_Stimulus\fewlarge_partialViewing_control_firehydrant90.png,mask_img/000000000459.png,training,i,i,395.3995442000014
V3,10,29,Male,Right,10,Training,2.463601200011908,0.05,false,bus,person,occlusion,low,mask,partial viewing,many small,Training_Stimulus\manysmall_partialViewing_low_bus180.png,mask_img/000000006709.png,training,e,o,399.4321564999991
V3,10,29,Male,Right,11,Training,1.5735039999999572,0.1,true,person,person,occlusion,low,mask,partial viewing,many small,Training_Stimulus\manysmall_partialViewing_low_person189.png,mask_img/000000007179.png,training,e,e,402.119735100001
V3,10,29,Male,Right,12,Training,2.929365099989809,0.1,false,cat,bird,occlusion,high,mask,partial viewing,many small,Training_Stimulus\manysmall_partialViewing_high_cat432.png,mask_img/000000005862.png,training,p,u,406.182258300003
V3,10,29,Male,Right,13,Training,3.079011299996637,0.1,true,person,person,occlusion,high,mask,partial viewing,many small,Training_Stimulus\manysmall_partialViewing_high_person189.png,mask_img/000000006153.png,training,e,e,410.7928677000018
V3,10,29,Male,Right,14,Training,1.880694500010577,0.05,true,banana,banana,occlusion,control,mask,partial viewing,many small,Training_Stimulus\manysmall_partialViewing_control_banana454.png,mask_img/000000004239.png,training,w,w,413.79291360000207
V3,10,29,Male,Right,15,Training,1.7673303999908967,0.1,false,bird,tree,occlusion,high,mask,partial viewing,many small,Training_Stimulus\manysmall_partialViewing_high_bird4.png,mask_img/000000005418.png,training,r,p,417.08982419999666
V3,10,29,Male,Right,16,Training,1.0815370999916922,0.05,true,building,building,occlusion,control,mask,partial viewing,few large,Training_Stimulus\fewlarge_partialViewing_control_building24.png,mask_img/000000000312.png,training,q,q,419.5741953999968
V3,10,29,Male,Right,17,Training,2.83986220000952,0.025,true,cat,cat,occlusion,low,mask,partial viewing,many small,Training_Stimulus\manysmall_partialViewing_low_cat432.png,mask_img/000000006842.png,training,u,u,423.6657816000079
V3,10,29,Male,Right,18,Training,1.3049997000052826,0.025,false,tree,person,occlusion,high,mask,partial viewing,few large,Training_Stimulus\fewlarge_partialViewing_high_tree9.png,mask_img/000000002197.png,training,e,r,426.1686331000092
V3,10,29,Male,Right,19,Training,1.1147318000002997,0.025,true,tree,tree,occlusion,control,mask,partial viewing,many small,Training_Stimulus\manysmall_partialViewing_control_tree9.png,mask_img/000000005282.png,training,r,r,428.45104770000034
V3,10,29,Male,Right,20,Training,1.3088368000026094,0.05,false,bus,building,occlusion,high,mask,partial viewing,many small,Training_Stimulus\manysmall_partialViewing_high_bus180.png,mask_img/000000005615.png,training,q,o,431.2311112000025
V3,10,29,Male,Right,21,Training,1.4320520000037504,0.025,true,tree,tree,occlusion,high,mask,partial viewing,many small,Training_Stimulus\manysmall_partialViewing_high_tree9.png,mask_img/000000006263.png,training,r,r,434.1217556000047
V3,10,29,Male,Right,22,Training,2.0457121999934316,0.1,true,banana,banana,occlusion,control,mask,partial viewing,many small,Training_Stimulus\manysmall_partialViewing_control_banana454.png,mask_img/000000004239.png,training,w,w,437.4186708000052
V3,10,29,Male,Right,23,Training,1.271967799999402,0.05,true,tree,tree,occlusion,low,mask,partial viewing,few large,Training_Stimulus\fewlarge_partialViewing_low_tree9.png,mask_img/000000003694.png,training,r,r,440.106222900009
V3,10,29,Male,Right,24,Training,1.0231392999994569,0.05,true,tree,tree,occlusion,low,mask,partial viewing,many small,Training_Stimulus\manysmall_partialViewing_low_tree9.png,mask_img/000000007325.png,training,r,r,442.5123225999996
V3,10,29,Male,Right,25,Training,1.3669188000058057,0.05,true,banana,banana,occlusion,low,mask,partial viewing,few large,Training_Stimulus\fewlarge_partialViewing_low_banana454.png,mask_img/000000002337.png,training,w,w,445.1700265999971
V3,10,29,Male,Right,26,Training,1.32307800000126,0.05,true,building,building,occlusion,high,mask,partial viewing,few large,Training_Stimulus\fewlarge_partialViewing_high_building24.png,mask_img/000000000873.png,training,q,q,447.998205099997
V3,10,29,Male,Right,27,Training,2.646422200006782,0.025,false,cat,firehydrant,occlusion,high,mask,partial viewing,few large,Training_Stimulus\fewlarge_partialViewing_high_cat432.png,mask_img/000000001647.png,training,i,u,451.935673400003
V3,10,29,Male,Right,28,Training,1.7152707000059308,0.1,true,bus,bus,occlusion,low,mask,partial viewing,few large,Training_Stimulus\fewlarge_partialViewing_low_bus180.png,mask_img/000000002892.png,training,o,o,454.85147960000904
V3,10,29,Male,Right,29,Training,1.4972332999896025,0.025,true,firehydrant,firehydrant,occlusion,low,mask,partial viewing,few large,Training_Stimulus\fewlarge_partialViewing_low_firehydrant90.png,mask_img/000000003225.png,training,i,i,457.61647110000195
V3,10,29,Male,Right,30,Training,1.3798055999941425,0.05,true,bird,bird,occlusion,control,mask,partial viewing,few large,Training_Stimulus\fewlarge_partialViewing_control_bird4.png,mask_img/000000000109.png,training,p,p,460.33899050000764
V3,10,29,Male,Right,31,Training,1.5694977999955881,0.025,false,firehydrant,building,occlusion,low,mask,partial viewing,many small,Training_Stimulus\manysmall_partialViewing_low_firehydrant90.png,mask_img/000000006870.png,training,q,i,463.1490136000066
V3,10,29,Male,Right,32,Training,1.5670880999969086,0.1,true,banana,banana,occlusion,control,mask,partial viewing,few large,Training_Stimulus\fewlarge_partialViewing_control_banana454.png,mask_img/000000000042.png,training,w,w,466.0709746000066
V3,10,29,Male,Right,33,Training,1.7592658000066876,0.05,true,firehydrant,firehydrant,occlusion,high,mask,partial viewing,many small,Training_Stimulus\manysmall_partialViewing_high_firehydrant90.png,mask_img/000000006146.png,training,i,i,469.07093709999754
V3,10,29,Male,Right,34,Training,1.450062700008857,0.05,true,banana,banana,occlusion,high,mask,partial viewing,many small,Training_Stimulus\manysmall_partialViewing_high_banana454.png,mask_img/000000005359.png,training,w,w,471.69588549999753
V3,10,29,Male,Right,35,Training,2.7257895000075223,0.05,true,bird,bird,occlusion,high,mask,partial viewing,few large,Training_Stimulus\fewlarge_partialViewing_high_bird4.png,mask_img/000000000731.png,training,p,p,475.88468920000014
V3,10,29,Male,Right,36,Training,3.533176100012497,0.05,true,cat,cat,occlusion,control,mask,partial viewing,few large,Training_Stimulus\fewlarge_partialViewing_control_cat432.png,mask_img/000000000438.png,training,u,u,480.52524230000563
V3,10,29,Male,Right,37,Training,2.051538600004278,0.1,false,bird,cat,occlusion,low,mask,partial viewing,many small,Training_Stimulus\manysmall_partialViewing_low_bird4.png,mask_img/000000006481.png,training,u,p,483.91596910000953
V3,10,29,Male,Right,38,Training,1.764276300003985,0.05,true,bus,bus,occlusion,control,mask,partial viewing,many small,Training_Stimulus\manysmall_partialViewing_control_bus180.png,mask_img/000000004936.png,training,o,o,487.26910570000473
V3,10,29,Male,Right,39,Training,1.9035830999928294,0.05,false,cat,tree,occlusion,low,mask,partial viewing,many small,Training_Stimulus\manysmall_partialViewing_low_cat432.png,mask_img/000000006842.png,training,r,u,490.6974710000068
V3,10,29,Male,Right,40,Training,0.9872165999986464,0.1,true,tree,tree,occlusion,high,mask,partial viewing,many small,Training_Stimulus\manysmall_partialViewing_high_tree9.png,mask_img/000000006263.png,training,r,r,492.93194300000323
V3,10,29,Male,Right,41,Training,1.6288217999972403,0.05,true,bird,bird,occlusion,low,mask,partial viewing,many small,Training_Stimulus\manysmall_partialViewing_low_bird4.png,mask_img/000000006481.png,training,p,p,495.86994669999694
V3,10,29,Male,Right,42,Training,0.7708082000026479,0.05,true,building,building,occlusion,low,mask,partial viewing,few large,Training_Stimulus\fewlarge_partialViewing_low_building24.png,mask_img/000000002822.png,training,q,q,497.99437329999637
V3,10,29,Male,Right,43,Training,1.2839266999944812,0.025,true,person,person,occlusion,high,mask,partial viewing,few large,Training_Stimulus\fewlarge_partialViewing_high_person189.png,mask_img/000000001997.png,training,e,e,500.4944082000002
V3,10,29,Male,Right,44,Training,0.7797473999962676,0.05,true,building,building,occlusion,low,mask,partial viewing,many small,Training_Stimulus\manysmall_partialViewing_low_building24.png,mask_img/000000006489.png,training,q,q,502.60386090000975
V3,10,29,Male,Right,45,Training,1.6127778999943985,0.025,false,cat,tree,occlusion,control,mask,partial viewing,few large,Training_Stimulus\fewlarge_partialViewing_control_cat432.png,mask_img/000000000438.png,training,r,u,505.57381620000524
V3,10,29,Male,Right,46,Training,1.4673324000032153,0.025,true,tree,tree,occlusion,low,mask,partial viewing,many small,Training_Stimulus\manysmall_partialViewing_low_tree9.png,mask_img/000000007325.png,training,r,r,508.2926185999968
V3,10,29,Male,Right,47,Training,1.861450500000501,0.05,true,bus,bus,occlusion,low,mask,partial viewing,few large,Training_Stimulus\fewlarge_partialViewing_low_bus180.png,mask_img/000000002892.png,training,o,o,511.5737519999966
V3,10,29,Male,Right,48,Training,1.6350695000000997,0.05,true,firehydrant,firehydrant,occlusion,control,mask,partial viewing,many small,Training_Stimulus\manysmall_partialViewing_control_firehydrant90.png,mask_img/000000005131.png,training,i,i,514.5752331999975
V3,10,29,Male,Right,49,Training,2.1767109999927925,0.1,true,building,building,occlusion,control,mask,partial viewing,few large,Training_Stimulus\fewlarge_partialViewing_control_building24.png,mask_img/000000000312.png,training,q,q,517.8719589000102
V3,10,29,Male,Right,50,Training,1.981514300001436,0.1,false,firehydrant,cat,occlusion,control,mask,partial viewing,few large,Training_Stimulus\fewlarge_partialViewing_control_firehydrant90.png,mask_img/000000000459.png,training,u,i,521.4184122000006
V3,10,29,Male,Right,51,Training,3.255651300001773,0.1,true,cat,cat,occlusion,control,mask,partial viewing,many small,Training_Stimulus\manysmall_partialViewing_control_cat432.png,mask_img/000000005105.png,training,u,u,526.0433396000008
V3,10,29,Male,Right,52,Training,1.191283399995882,0.025,false,bus,building,occlusion,high,mask,partial viewing,many small,Training_Stimulus\manysmall_partialViewing_high_bus180.png,mask_img/000000005615.png,training,q,o,528.8090521999984
V3,10,29,Male,Right,53,Training,2.856470200000331,0.025,true,bird,bird,occlusion,low,mask,partial viewing,many small,Training_Stimulus\manysmall_partialViewing_low_bird4.png,mask_img/000000006481.png,training,p,p,533.0747513000097
V3,10,29,Male,Right,54,Training,1.1354735000059009,0.1,true,bird,bird,occlusion,control,mask,partial viewing,few large,Training_Stimulus\fewlarge_partialViewing_control_bird4.png,mask_img/000000000109.png,training,p,p,535.6528123000026
V3,10,29,Male,Right,55,Training,1.5363667000056012,0.05,true,person,person,occlusion,high,mask,partial viewing,few large,Training_Stimulus\fewlarge_partialViewing_high_person189.png,mask_img/000000001997.png,training,e,e,538.7311532000022
V3,10,29,Male,Right,56,Training,1.5604552000004333,0.05,true,cat,cat,occlusion,high,mask,partial viewing,few large,Training_Stimulus\fewlarge_partialViewing_high_cat432.png,mask_img/000000001647.png,training,u,u,541.7937039999961
V3,10,29,Male,Right,57,Training,2.019886600013706,0.025,true,bus,bus,occlusion,control,mask,partial viewing,few large,Training_Stimulus\fewlarge_partialViewing_control_bus180.png,mask_img/000000000394.png,training,o,o,545.262224200007
V3,10,29,Male,Right,58,Training,1.1436171999957878,0.05,true,bird,bird,occlusion,low,mask,partial viewing,few large,Training_Stimulus\fewlarge_partialViewing_low_bird4.png,mask_img/000000002774.png,training,p,p,547.5435614000016
V3,10,29,Male,Right,59,Training,1.1022456999926362,0.1,true,person,person,occlusion,high,mask,partial viewing,few large,Training_Stimulus\fewlarge_partialViewing_high_person189.png,mask_img/000000001997.png,training,e,e,549.8731973000104
V3,10,29,Male,Right,60,Training,0.8486237000033725,0.1,true,building,building,occlusion,control,mask,partial viewing,many small,Training_Stimulus\manysmall_partialViewing_control_building24.png,mask_img/000000004739.png,training,q,q,552.0355567000079
V3,10,29,Male,Right,1,Block 1,1.549402699994971,0.025,true,banana,banana,occlusion,control,mask,partial viewing,few large,Stimulus\all_stim\occlusion\partialviewing\fewlarge\control\fewlarge_partialViewing_control_banana6.png,mask_img/000000000595.png,experiment,w,w,569.1815339000023
V3,10,29,Male,Right,2,Block 1,1.3333196000021417,0.025,true,person,person,occlusion,low,mask,partial viewing,few large,Stimulus\all_stim\occlusion\partialviewing\fewlarge\low\fewlarge_partialViewing_low_person8.png,mask_img/000000030611.png,experiment,e,e,571.6774155000021
V3,10,29,Male,Right,3,Block 1,1.497616399996332,0.1,true,person,person,occlusion,low,mask,partial viewing,few large,Stimulus\all_stim\occlusion\partialviewing\fewlarge\low\fewlarge_partialViewing_low_person7.png,mask_img/000000030526.png,experiment,e,e,574.1730095000094
V3,10,29,Male,Right,4,Block 1,0.8021306000009645,0.1,true,building,building,occlusion,high,mask,partial viewing,few large,Stimulus\all_stim\occlusion\partialviewing\fewlarge\high\fewlarge_partialViewing_high_building7.png,mask_img/000000015155.png,experiment,q,q,575.8056752999983
V3,10,29,Male,Right,5,Block 1,1.3013709999941057,0.05,true,banana,banana,occlusion,control,mask,partial viewing,many small,Stimulus\all_stim\occlusion\partialviewing\manysmall\control\manysmall_partialViewing_control_banana10.png,mask_img/000000033074.png,experiment,w,w,577.8451101000101
V3,10,29,Male,Right,6,Block 1,2.3027134999865666,0.1,false,bird,firehydrant,occlusion,low,mask,partial viewing,many small,Stimulus\all_stim\occlusion\partialviewing\manysmall\low\manysmall_partialViewing_low_bird4.png,mask_img/000000055859.png,experiment,i,p,580.8690755999996
V3,10,29,Male,Right,7,Block 1,3.0445010000112234,0.1,true,cat,cat,occlusion,control,mask,partial viewing,few large,Stimulus\all_stim\occlusion\partialviewing\fewlarge\control\fewlarge_partialViewing_control_cat2.png,mask_img/000000006489.png,experiment,u,u,584.6937867000088
V3,10,29,Male,Right,8,Block 1,0.899709300007089,0.1,true,building,building,occlusion,low,mask,partial viewing,many small,Stimulus\all_stim\occlusion\partialviewing\manysmall\low\manysmall_partialViewing_low_building10.png,mask_img/000000057068.png,experiment,q,q,586.4051760000002
V3,10,29,Male,Right,9,Block 1,1.2992364999954589,0.05,true,bus,bus,occlusion,control,mask,partial viewing,many small,Stimulus\all_stim\occlusion\partialviewing\manysmall\control\manysmall_partialViewing_control_bus1.png,mask_img/000000036255.png,experiment,o,o,588.6371948000015
V3,10,29,Male,Right,10,Block 1,0.9993007000011858,0.05,true,bus,bus,occlusion,low,mask,partial viewing,many small,Stimulus\all_stim\occlusion\partialviewing\manysmall\low\manysmall_partialViewing_low_bus9.png,mask_img/000000058910.png,experiment,o,o,590.5570058000012
V3,10,29,Male,Right,11,Block 1,0.8191697000002023,0.025,true,bus,bus,occlusion,control,mask,partial viewing,many small,Stimulus\all_stim\occlusion\partialviewing\manysmall\control\manysmall_partialViewing_control_bus2.png,mask_img/000000036622.png,experiment,o,o,592.2212916999997
V3,10,29,Male,Right,12,Block 1,0.8705824000062421,0.025,true,building,building,occlusion,control,mask,partial viewing,few large,Stimulus\all_stim\occlusion\partialviewing\fewlarge\control\fewlarge_partialViewing_control_building8.png,mask_img/000000005105.png,experiment,q,q,593.7732042999996
V3,10,29,Male,Right,13,Block 1,1.4475692999985768,0.1,true,tree,tree,occlusion,control,mask,partial viewing,few large,Stimulus\all_stim\occlusion\partialviewing\fewlarge\control\fewlarge_partialViewing_control_tree10.png,mask_img/000000010414.png,experiment,r,r,596.3014659000037
V3,10,29,Male,Right,14,Block 1,1.1171458000026178,0.1,true,bird,bird,occlusion,control,mask,partial viewing,few large,Stimulus\all_stim\occlusion\partialviewing\fewlarge\control\fewlarge_partialViewing_control_bird9.png,mask_img/000000002892.png,experiment,p,p,598.5812471999961
V3,10,29,Male,Right,15,Block 1,1.1705134000076214,0.05,false,banana,bird,occlusion,low,mask,partial viewing,many small,Stimulus\all_stim\occlusion\partialviewing\manysmall\low\manysmall_partialViewing_low_banana1.png,mask_img/000000054532.png,experiment,p,w,600.5891739000072
V3,10,29,Male,Right,16,Block 1,2.8422187000105623,0.025,false,firehydrant,person,occlusion,high,mask,partial viewing,few large,Stimulus\all_stim\occlusion\partialviewing\fewlarge\high\fewlarge_partialViewing_high_firehydrant1.png,mask_img/000000017944.png,experiment,e,i,604.1571719000058
V3,10,29,Male,Right,17,Block 1,1.567299100002856,0.025,false,firehydrant,person,occlusion,high,mask,partial viewing,many small,Stimulus\all_stim\occlusion\partialviewing\manysmall\high\manysmall_partialViewing_high_firehydrant4.png,mask_img/000000050412.png,experiment,e,i,606.7490653999994
V3,10,29,Male,Right,18,Block 1,1.0164280999888433,0.1,true,building,building,occlusion,high,mask,partial viewing,many small,Stimulus\all_stim\occlusion\partialviewing\manysmall\high\manysmall_partialViewing_high_building5.png,mask_img/000000046029.png,experiment,q,q,608.9171831999993
V3,10,29,Male,Right,19,Block 1,1.7836172999959672,0.05,true,tree,tree,occlusion,control,mask,partial viewing,few large,Stimulus\all_stim\occlusion\partialviewing\fewlarge\control\fewlarge_partialViewing_control_tree6.png,mask_img/000000011328.png,experiment,r,r,611.6852647000051
V3,10,29,Male,Right,20,Block 1,2.4618704999884358,0.05,false,bird,cat,occlusion,control,mask,partial viewing,many small,Stimulus\all_stim\occlusion\partialviewing\manysmall\control\manysmall_partialViewing_control_bird6.png,mask_img/000000034993.png,experiment,u,p,615.0138339999976
V3,10,29,Male,Right,21,Block 1,1.4524854000046616,0.025,true,person,person,occlusion,low,mask,partial viewing,few large,Stimulus\all_stim\occlusion\partialviewing\fewlarge\low\fewlarge_partialViewing_low_person6.png,mask_img/000000030267.png,experiment,e,e,617.5734537000098
V3,10,29,Male,Right,22,Block 1,2.6214073000010103,0.1,true,firehydrant,firehydrant,occlusion,high,mask,partial viewing,few large,Stimulus\all_stim\occlusion\partialviewing\fewlarge\high\fewlarge_partialViewing_high_firehydrant5.png,mask_img/000000018982.png,experiment,i,i,620.989651099997
V3,10,29,Male,Right,23,Block 1,1.040570499986643,0.05,true,building,building,occlusion,high,mask,partial viewing,many small,Stimulus\all_stim\occlusion\partialviewing\manysmall\high\manysmall_partialViewing_high_building5.png,mask_img/000000046029.png,experiment,q,q,623.0932442000048
V3,10,29,Male,Right,24,Block 1,0.6971422999922652,0.05,true,building,building,occlusion,low,mask,partial viewing,many small,Stimulus\all_stim\occlusion\partialviewing\manysmall\low\manysmall_partialViewing_low_building6.png,mask_img/000000057979.png,experiment,q,q,624.709296800007
V3,10,29,Male,Right,25,Block 1,0.707829099992523,0.1,true,building,building,occlusion,control,mask,partial viewing,few large,Stimulus\all_stim\occlusion\partialviewing\fewlarge\control\fewlarge_partialViewing_control_building6.png,mask_img/000000004739.png,experiment,q,q,626.1017060000013
V3,10,29,Male,Right,26,Block 1,1.4758177000039723,0.05,true,bird,bird,occlusion,high,mask,partial viewing,few large,Stimulus\all_stim\occlusion\partialviewing\fewlarge\high\fewlarge_partialViewing_high_bird3.png,mask_img/000000013455.png,experiment,p,p,628.5972531000007
V3,10,29,Male,Right,27,Block 1,0.8262035000079777,0.1,true,bird,bird,occlusion,control,mask,partial viewing,many small,Stimulus\all_stim\occlusion\partialviewing\manysmall\control\manysmall_partialViewing_control_bird10.png,mask_img/000000034304.png,experiment,p,p,630.2532807000098
V3,10,29,Male,Right,28,Block 1,0.7125089999899501,0.025,true,building,building,occlusion,control,mask,partial viewing,few large,Stimulus\all_stim\occlusion\partialviewing\fewlarge\control\fewlarge_partialViewing_control_building1.png,mask_img/000000003084.png,experiment,q,q,632.0217294000031
V3,10,29,Male,Right,29,Block 1,1.638772300007986,0.025,true,bus,bus,occlusion,low,mask,partial viewing,few large,Stimulus\all_stim\occlusion\partialviewing\fewlarge\low\fewlarge_partialViewing_low_bus1.png,mask_img/000000025820.png,experiment,o,o,634.390128900006
V3,10,29,Male,Right,30,Block 1,2.3002831999910995,0.05,true,banana,banana,occlusion,control,mask,partial viewing,many small,Stimulus\all_stim\occlusion\partialviewing\manysmall\control\manysmall_partialViewing_control_banana7.png,mask_img/000000033861.png,experiment,w,w,637.3977295000077
V3,10,29,Male,Right,31,Block 1,1.411048000009032,0.025,true,tree,tree,occlusion,control,mask,partial viewing,few large,Stimulus\all_stim\occlusion\partialviewing\fewlarge\control\fewlarge_partialViewing_control_tree4.png,mask_img/000000010969.png,experiment,r,r,639.6292506000027
V3,10,29,Male,Right,32,Block 1,1.0461574000073597,0.1,true,tree,tree,occlusion,high,mask,partial viewing,many small,Stimulus\all_stim\occlusion\partialviewing\manysmall\high\manysmall_partialViewing_high_tree6.png,mask_img/000000053539.png,experiment,r,r,641.5891302000091
V3,10,29,Male,Right,33,Block 1,0.7438371000025654,0.1,true,building,building,occlusion,control,mask,partial viewing,few large,Stimulus\all_stim\occlusion\partialviewing\fewlarge\control\fewlarge_partialViewing_control_building9.png,mask_img/000000005131.png,experiment,q,q,643.1411923999985
V3,10,29,Male,Right,34,Block 1,1.2939218999963487,0.05,true,bird,bird,occlusion,control,mask,partial viewing,few large,Stimulus\all_stim\occlusion\partialviewing\fewlarge\control\fewlarge_partialViewing_control_bird1.png,mask_img/000000000873.png,experiment,p,p,645.2533092000085
V3,10,29,Male,Right,35,Block 1,1.3230032999999821,0.05,false,banana,bird,occlusion,high,mask,partial viewing,many small,Stimulus\all_stim\occlusion\partialviewing\manysmall\high\manysmall_partialViewing_high_banana3.png,mask_img/000000042476.png,experiment,p,w,647.3495553999965
V3,10,29,Male,Right,36,Block 1,0.9710477000044193,0.025,true,bird,bird,occlusion,control,mask,partial viewing,few large,Stimulus\all_stim\occlusion\partialviewing\fewlarge\control\fewlarge_partialViewing_control_bird1.png,mask_img/000000000873.png,experiment,p,p,649.4612324000045
V3,10,29,Male,Right,37,Block 1,2.3938865999953123,0.1,true,cat,cat,occlusion,control,mask,partial viewing,many small,Stimulus\all_stim\occlusion\partialviewing\manysmall\control\manysmall_partialViewing_control_cat9.png,mask_img/000000038862.png,experiment,u,u,652.5896684000036
V3,10,29,Male,Right,38,Block 1,1.9197006000031251,0.1,true,firehydrant,firehydrant,occlusion,control,mask,partial viewing,few large,Stimulus\all_stim\occlusion\partialviewing\fewlarge\control\fewlarge_partialViewing_control_firehydrant9.png,mask_img/000000008329.png,experiment,i,i,655.6372987000068
V3,10,29,Male,Right,39,Block 1,1.9330279999994673,0.05,true,tree,tree,occlusion,control,mask,partial viewing,few large,Stimulus\all_stim\occlusion\partialviewing\fewlarge\control\fewlarge_partialViewing_control_tree7.png,mask_img/000000011504.png,experiment,r,r,658.541349200008
V3,10,29,Male,Right,40,Block 1,0.9770553999987897,0.025,true,bird,bird,occlusion,control,mask,partial viewing,many small,Stimulus\all_stim\occlusion\partialviewing\manysmall\control\manysmall_partialViewing_control_bird9.png,mask_img/000000035514.png,experiment,p,p,660.5733174000052
V3,10,29,Male,Right,41,Block 1,0.7251926000026288,0.025,true,building,building,occlusion,control,mask,partial viewing,many small,Stimulus\all_stim\occlusion\partialviewing\manysmall\control\manysmall_partialViewing_control_building3.png,mask_img/000000035979.png,experiment,q,q,662.4614894999977
V3,10,29,Male,Right,42,Block 1,1.8783154999982798,0.05,true,person,person,occlusion,low,mask,partial viewing,many small,Stimulus\all_stim\occlusion\partialviewing\manysmall\low\manysmall_partialViewing_low_person7.png,mask_img/000000062350.png,experiment,e,e,665.2693790000048
V3,10,29,Male,Right,43,Block 1,1.6957590999954846,0.025,false,tree,bird,occlusion,high,mask,partial viewing,many small,Stimulus\all_stim\occlusion\partialviewing\manysmall\high\manysmall_partialViewing_high_tree10.png,mask_img/000000052818.png,experiment,p,r,667.6935468000011
V3,10,29,Male,Right,44,Block 1,1.207438400000683,0.025,false,firehydrant,bird,occlusion,low,mask,partial viewing,many small,Stimulus\all_stim\occlusion\partialviewing\manysmall\low\manysmall_partialViewing_low_firehydrant7.png,mask_img/000000061084.png,experiment,p,i,669.9578716000105
V3,10,29,Male,Right,45,Block 1,3.0503354000102263,0.1,true,cat,cat,occlusion,low,mask,partial viewing,few large,Stimulus\all_stim\occlusion\partialviewing\fewlarge\low\fewlarge_partialViewing_low_cat5.png,mask_img/000000027704.png,experiment,u,u,673.8459625000105
V3,10,29,Male,Right,46,Block 1,0.7804568999999901,0.025,true,cat,cat,occlusion,control,mask,partial viewing,few large,Stimulus\all_stim\occlusion\partialviewing\fewlarge\control\fewlarge_partialViewing_control_cat3.png,mask_img/000000006709.png,experiment,u,u,675.4772149000055
V3,10,29,Male,Right,47,Block 1,1.2615415000036592,0.05,true,tree,tree,occlusion,control,mask,partial viewing,few large,Stimulus\all_stim\occlusion\partialviewing\fewlarge\control\fewlarge_partialViewing_control_tree10.png,mask_img/000000010414.png,experiment,r,r,677.7571412999969
V3,10,29,Male,Right,48,Block 1,1.2735072999930708,0.05,true,cat,cat,occlusion,high,mask,partial viewing,few large,Stimulus\all_stim\occlusion\partialviewing\fewlarge\high\fewlarge_partialViewing_high_cat3.png,mask_img/000000017356.png,experiment,u,u,679.7251382000104
V3,10,29,Male,Right,49,Block 1,1.0834747000044445,0.025,true,tree,tree,occlusion,low,mask,partial viewing,many small,Stimulus\all_stim\occlusion\partialviewing\manysmall\low\manysmall_partialViewing_low_tree8.png,mask_img/000000063804.png,experiment,r,r,681.733249900004
V3,10,29,Male,Right,50,Block 1,1.5869557999976678,0.1,true,bus,bus,occlusion,control,mask,partial viewing,many small,Stimulus\all_stim\occlusion\partialviewing\manysmall\control\manysmall_partialViewing_control_bus2.png,mask_img/000000036622.png,experiment,o,o,684.3412133000093
V3,10,29,Male,Right,51,Block 1,1.6983092000009492,0.1,true,tree,tree,occlusion,high,mask,partial viewing,many small,Stimulus\all_stim\occlusion\partialviewing\manysmall\high\manysmall_partialViewing_high_tree1.png,mask_img/000000052784.png,experiment,r,r,686.9252224000084
V3,10,29,Male,Right,52,Block 1,0.9477870999980951,0.05,true,tree,tree,occlusion,control,mask,partial viewing,few large,Stimulus\all_stim\occlusion\partialviewing\fewlarge\control\fewlarge_partialViewing_control_tree5.png,mask_img/000000010991.png,experiment,r,r,688.573498400001
V3,10,29,Male,Right,53,Block 1,1.0834899000037694,0.1,true,building,building,occlusion,high,mask,partial viewing,many small,Stimulus\all_stim\occlusion\partialviewing\manysmall\high\manysmall_partialViewing_high_building4.png,mask_img/000000046025.png,experiment,q,q,690.446279900003
V3,10,29,Male,Right,54,Block 1,0.7391128000017488,0.1,true,building,building,occlusion,high,mask,partial viewing,few large,Stimulus\all_stim\occlusion\partialviewing\fewlarge\high\fewlarge_partialViewing_high_building9.png,mask_img/000000015619.png,experiment,q,q,692.2214876000071
V3,10,29,Male,Right,55,Block 1,0.6967117000021972,0.025,true,building,building,occlusion,low,mask,partial viewing,few large,Stimulus\all_stim\occlusion\partialviewing\fewlarge\low\fewlarge_partialViewing_low_building9.png,mask_img/000000025516.png,experiment,q,q,693.9410340000031
V3,10,29,Male,Right,56,Block 1,2.0093954000039957,0.1,true,banana,banana,occlusion,high,mask,partial viewing,many small,Stimulus\all_stim\occlusion\partialviewing\manysmall\high\manysmall_partialViewing_high_banana3.png,mask_img/000000042476.png,experiment,w,w,697.1257579000085
V3,10,29,Male,Right,57,Block 1,1.5911990000022342,0.025,true,bus,bus,occlusion,high,mask,partial viewing,many small,Stimulus\all_stim\occlusion\partialviewing\manysmall\high\manysmall_partialViewing_high_bus5.png,mask_img/000000047395.png,experiment,o,o,699.8051358000084
V3,10,29,Male,Right,58,Block 1,1.5139673000085168,0.1,true,firehydrant,firehydrant,occlusion,low,mask,partial viewing,few large,Stimulus\all_stim\occlusion\partialviewing\fewlarge\low\fewlarge_partialViewing_low_firehydrant5.png,mask_img/000000028698.png,experiment,i,i,702.1092760000029
V3,10,29,Male,Right,59,Block 1,1.6625003999943146,0.1,true,person,person,occlusion,low,mask,partial viewing,many small,Stimulus\all_stim\occlusion\partialviewing\manysmall\low\manysmall_partialViewing_low_person8.png,mask_img/000000062420.png,experiment,e,e,704.8131752000045
V3,10,29,Male,Right,60,Block 1,1.1808424000046216,0.05,true,bird,bird,occlusion,low,mask,partial viewing,few large,Stimulus\all_stim\occlusion\partialviewing\fewlarge\low\fewlarge_partialViewing_low_bird10.png,mask_img/000000023988.png,experiment,p,p,706.9092259000026
V3,10,29,Male,Right,61,Block 1,1.5890098000090802,0.05,true,bus,bus,occlusion,high,mask,partial viewing,few large,Stimulus\all_stim\occlusion\partialviewing\fewlarge\high\fewlarge_partialViewing_high_bus1.png,mask_img/000000015645.png,experiment,o,o,709.3895116000058
V3,10,29,Male,Right,62,Block 1,2.2612053000048036,0.05,false,person,bird,occlusion,low,mask,partial viewing,many small,Stimulus\all_stim\occlusion\partialviewing\manysmall\low\manysmall_partialViewing_low_person9.png,mask_img/000000062427.png,experiment,p,e,712.7734087999997
V3,10,29,Male,Right,63,Block 1,0.7150341999949887,0.025,true,building,building,occlusion,low,mask,partial viewing,few large,Stimulus\all_stim\occlusion\partialviewing\fewlarge\low\fewlarge_partialViewing_low_building3.png,mask_img/000000024808.png,experiment,q,q,714.3336439999985
V3,10,29,Male,Right,64,Block 1,1.7283446999936132,0.05,true,bus,bus,occlusion,low,mask,partial viewing,many small,Stimulus\all_stim\occlusion\partialviewing\manysmall\low\manysmall_partialViewing_low_bus8.png,mask_img/000000058873.png,experiment,o,o,717.0694240000012
V3,10,29,Male,Right,65,Block 1,2.2978052999969805,0.025,false,cat,tree,occlusion,high,mask,partial viewing,many small,Stimulus\all_stim\occlusion\partialviewing\manysmall\high\manysmall_partialViewing_high_cat1.png,mask_img/000000048664.png,experiment,r,u,720.133287500008
V3,10,29,Male,Right,66,Block 1,1.372461500010104,0.1,true,person,person,occlusion,control,mask,partial viewing,many small,Stimulus\all_stim\occlusion\partialviewing\manysmall\control\manysmall_partialViewing_control_person6.png,mask_img/000000040325.png,experiment,e,e,722.5412532000046
V3,10,29,Male,Right,67,Block 1,1.3060857000091346,0.05,false,tree,person,occlusion,low,mask,partial viewing,few large,Stimulus\all_stim\occlusion\partialviewing\fewlarge\low\fewlarge_partialViewing_low_tree5.png,mask_img/000000032403.png,experiment,e,r,725.0050652000064
V3,10,29,Male,Right,68,Block 1,1.6181614999950398,0.05,true,person,person,occlusion,control,mask,partial viewing,few large,Stimulus\all_stim\occlusion\partialviewing\fewlarge\control\fewlarge_partialViewing_control_person6.png,mask_img/000000009469.png,experiment,e,e,727.6453225000005
V3,10,29,Male,Right,69,Block 1,2.2002247999917017,0.05,true,person,person,occlusion,high,mask,partial viewing,many small,Stimulus\all_stim\occlusion\partialviewing\manysmall\high\manysmall_partialViewing_high_person7.png,mask_img/000000052562.png,experiment,e,e,730.8376109000092
V3,10,29,Male,Right,70,Block 1,1.273356399993645,0.025,true,firehydrant,firehydrant,occlusion,control,mask,partial viewing,few large,Stimulus\all_stim\occlusion\partialviewing\fewlarge\control\fewlarge_partialViewing_control_firehydrant2.png,mask_img/000000007934.png,experiment,i,i,733.2694990000018
V3,10,29,Male,Right,71,Block 1,1.1817299999966053,0.1,true,person,person,occlusion,high,mask,partial viewing,few large,Stimulus\all_stim\occlusion\partialviewing\fewlarge\high\fewlarge_partialViewing_high_person5.png,mask_img/000000020381.png,experiment,e,e,735.2294316000043
V3,10,29,Male,Right,72,Block 1,2.3015377999981865,0.05,true,firehydrant,firehydrant,occlusion,low,mask,partial viewing,few large,Stimulus\all_stim\occlusion\partialviewing\fewlarge\low\fewlarge_partialViewing_low_firehydrant10.png,mask_img/000000028367.png,experiment,i,i,738.4692349999968
V3,10,29,Male,Right,73,Block 1,2.3658591999992495,0.1,false,bird,tree,occlusion,high,mask,partial viewing,many small,Stimulus\all_stim\occlusion\partialviewing\manysmall\high\manysmall_partialViewing_high_bird5.png,mask_img/000000044437.png,experiment,r,p,741.8773950000032
V3,10,29,Male,Right,74,Block 1,0.774019499993301,0.1,true,building,building,occlusion,low,mask,partial viewing,few large,Stimulus\all_stim\occlusion\partialviewing\fewlarge\low\fewlarge_partialViewing_low_building8.png,mask_img/000000025453.png,experiment,q,q,743.4293536000041
V3,10,29,Male,Right,75,Block 1,1.1556144000060158,0.1,true,bus,bus,occlusion,low,mask,partial viewing,many small,Stimulus\all_stim\occlusion\partialviewing\manysmall\low\manysmall_partialViewing_low_bus6.png,mask_img/000000058815.png,experiment,o,o,745.6051348000037
V3,10,29,Male,Right,76,Block 1,1.487952800001949,0.05,true,firehydrant,firehydrant,occlusion,control,mask,partial viewing,many small,Stimulus\all_stim\occlusion\partialviewing\manysmall\control\manysmall_partialViewing_control_firehydrant1.png,mask_img/000000039012.png,experiment,i,i,748.253501500003
V3,10,29,Male,Right,77,Block 1,1.1592430000018794,0.1,true,bird,bird,occlusion,control,mask,partial viewing,many small,Stimulus\all_stim\occlusion\partialviewing\manysmall\control\manysmall_partialViewing_control_bird8.png,mask_img/000000035190.png,experiment,p,p,750.3338853000023
V3,10,29,Male,Right,78,Block 1,1.0318536999984644,0.1,true,bird,bird,occlusion,low,mask,partial viewing,many small,Stimulus\all_stim\occlusion\partialviewing\manysmall\low\manysmall_partialViewing_low_bird2.png,mask_img/000000055737.png,experiment,p,p,752.4374608000071
V3,10,29,Male,Right,79,Block 1,1.4553513999999268,0.025,true,tree,tree,occlusion,low,mask,partial viewing,many small,Stimulus\all_stim\occlusion\partialviewing\manysmall\low\manysmall_partialViewing_low_tree10.png,mask_img/000000062716.png,experiment,r,r,754.7500414000096
V3,10,29,Male,Right,80,Block 1,0.7278497000079369,0.025,true,building,building,occlusion,high,mask,partial viewing,few large,Stimulus\all_stim\occlusion\partialviewing\fewlarge\high\fewlarge_partialViewing_high_building8.png,mask_img/000000015366.png,experiment,q,q,756.6213541000034
V3,10,29,Male,Right,81,Block 1,1.1603641999972751,0.05,true,person,person,occlusion,low,mask,partial viewing,many small,Stimulus\all_stim\occlusion\partialviewing\manysmall\low\manysmall_partialViewing_low_person6.png,mask_img/000000062337.png,experiment,e,e,758.8856093000068
V3,10,29,Male,Right,82,Block 1,1.1831857999932254,0.025,true,tree,tree,occlusion,high,mask,partial viewing,many small,Stimulus\all_stim\occlusion\partialviewing\manysmall\high\manysmall_partialViewing_high_tree1.png,mask_img/000000052784.png,experiment,r,r,760.7497877999995
V3,10,29,Male,Right,83,Block 1,1.3489140000019688,0.025,true,bus,bus,occlusion,control,mask,partial viewing,many small,Stimulus\all_stim\occlusion\partialviewing\manysmall\control\manysmall_partialViewing_control_bus8.png,mask_img/000000037782.png,experiment,o,o,763.0056613000052
V3,10,29,Male,Right,84,Block 1,1.3426395999995293,0.1,true,firehydrant,firehydrant,occlusion,high,mask,partial viewing,many small,Stimulus\all_stim\occlusion\partialviewing\manysmall\high\manysmall_partialViewing_high_firehydrant1.png,mask_img/000000049987.png,experiment,i,i,765.3253608000086
V3,10,29,Male,Right,85,Block 1,1.1204478999861749,0.1,true,person,person,occlusion,low,mask,partial viewing,many small,Stimulus\all_stim\occlusion\partialviewing\manysmall\low\manysmall_partialViewing_low_person3.png,mask_img/000000062128.png,experiment,e,e,767.5739720999991
V3,10,29,Male,Right,86,Block 1,0.9310547999921255,0.05,true,tree,tree,occlusion,control,mask,partial viewing,many small,Stimulus\all_stim\occlusion\partialviewing\manysmall\control\manysmall_partialViewing_control_tree6.png,mask_img/000000041272.png,experiment,r,r,769.589475700006
V3,10,29,Male,Right,87,Block 1,1.6975348999985727,0.025,true,cat,cat,occlusion,control,mask,partial viewing,many small,Stimulus\all_stim\occlusion\partialviewing\manysmall\control\manysmall_partialViewing_control_cat9.png,mask_img/000000038862.png,experiment,u,u,772.029320200003
V3,10,29,Male,Right,88,Block 1,1.6879717000119854,0.025,true,bus,bus,occlusion,high,mask,partial viewing,few large,Stimulus\all_stim\occlusion\partialviewing\fewlarge\high\fewlarge_partialViewing_high_bus9.png,mask_img/000000016764.png,experiment,o,o,774.4694421000022
V3,10,29,Male,Right,89,Block 1,1.5441452999948524,0.1,true,person,person,occlusion,control,mask,partial viewing,few large,Stimulus\all_stim\occlusion\partialviewing\fewlarge\control\fewlarge_partialViewing_control_person10.png,mask_img/000000008469.png,experiment,e,e,776.8692207999993
V3,10,29,Male,Right,90,Block 1,1.1760494999907678,0.05,true,tree,tree,occlusion,control,mask,partial viewing,many small,Stimulus\all_stim\occlusion\partialviewing\manysmall\control\manysmall_partialViewing_control_tree2.png,mask_img/000000041008.png,experiment,r,r,779.1652108999988
V3,10,29,Male,Right,91,Block 1,2.4144691999972565,0.05,true,cat,cat,occlusion,low,mask,partial viewing,few large,Stimulus\all_stim\occlusion\partialviewing\fewlarge\low\fewlarge_partialViewing_low_cat1.png,mask_img/000000027151.png,experiment,u,u,782.6854032999981
V3,10,29,Male,Right,92,Block 1,1.5699576000042725,0.025,true,firehydrant,firehydrant,occlusion,high,mask,partial viewing,many small,Stimulus\all_stim\occlusion\partialviewing\manysmall\high\manysmall_partialViewing_high_firehydrant8.png,mask_img/000000050794.png,experiment,i,i,785.2614546999976
V3,10,29,Male,Right,93,Block 1,1.0981552000012016,0.1,true,bus,bus,occlusion,low,mask,partial viewing,many small,Stimulus\all_stim\occlusion\partialviewing\manysmall\low\manysmall_partialViewing_low_bus7.png,mask_img/000000058822.png,experiment,o,o,787.2054780000035
V3,10,29,Male,Right,94,Block 1,1.3072251999983564,0.05,true,tree,tree,occlusion,control,mask,partial viewing,many small,Stimulus\all_stim\occlusion\partialviewing\manysmall\control\manysmall_partialViewing_control_tree4.png,mask_img/000000041022.png,experiment,r,r,789.349326399999
V3,10,29,Male,Right,95,Block 1,1.4413615000084974,0.025,true,tree,tree,occlusion,control,mask,partial viewing,many small,Stimulus\all_stim\occlusion\partialviewing\manysmall\control\manysmall_partialViewing_control_tree1.png,mask_img/000000040886.png,experiment,r,r,791.8378090000042
V3,10,29,Male,Right,96,Block 1,1.0902069000003394,0.05,true,bus,bus,occlusion,control,mask,partial viewing,many small,Stimulus\all_stim\occlusion\partialviewing\manysmall\control\manysmall_partialViewing_control_bus8.png,mask_img/000000037782.png,experiment,o,o,793.7012346999982
V3,10,29,Male,Right,97,Block 1,1.1002681999962078,0.1,true,banana,banana,occlusion,control,mask,partial viewing,few large,Stimulus\all_stim\occlusion\partialviewing\fewlarge\control\fewlarge_partialViewing_control_banana4.png,mask_img/000000000438.png,experiment,w,w,795.6296215000039
V3,10,29,Male,Right,98,Block 1,1.3949986999941757,0.025,true,firehydrant,firehydrant,occlusion,control,mask,partial viewing,few large,Stimulus\all_stim\occlusion\partialviewing\fewlarge\control\fewlarge_partialViewing_control_firehydrant3.png,mask_img/000000007946.png,experiment,i,i,797.8455175999989
V3,10,29,Male,Right,99,Block 1,2.2884634000074584,0.05,false,person,banana,occlusion,high,mask,partial viewing,many small,Stimulus\all_stim\occlusion\partialviewing\manysmall\high\manysmall_partialViewing_high_person6.png,mask_img/000000052426.png,experiment,w,e,800.8615740000096
V3,10,29,Male,Right,100,Block 1,1.4619069000036689,0.05,true,firehydrant,firehydrant,occlusion,control,mask,partial viewing,few large,Stimulus\all_stim\occlusion\partialviewing\fewlarge\control\fewlarge_partialViewing_control_firehydrant4.png,mask_img/000000007952.png,experiment,i,i,803.1091764000012
V3,10,29,Male,Right,101,Block 1,1.0534063000086462,0.1,true,bus,bus,occlusion,high,mask,partial viewing,many small,Stimulus\all_stim\occlusion\partialviewing\manysmall\high\manysmall_partialViewing_high_bus2.png,mask_img/000000046852.png,experiment,o,o,805.3095578000066
V3,10,29,Male,Right,102,Block 1,1.1591072000010172,0.05,true,tree,tree,occlusion,control,mask,partial viewing,few large,Stimulus\all_stim\occlusion\partialviewing\fewlarge\control\fewlarge_partialViewing_control_tree4.png,mask_img/000000010969.png,experiment,r,r,807.2533881999989
V3,10,29,Male,Right,103,Block 1,1.366284599993378,0.05,true,cat,cat,occlusion,control,mask,partial viewing,few large,Stimulus\all_stim\occlusion\partialviewing\fewlarge\control\fewlarge_partialViewing_control_cat10.png,mask_img/000000006481.png,experiment,u,u,809.7173351000092
V3,10,29,Male,Right,104,Block 1,0.8206588000030024,0.05,true,cat,cat,occlusion,control,mask,partial viewing,few large,Stimulus\all_stim\occlusion\partialviewing\fewlarge\control\fewlarge_partialViewing_control_cat4.png,mask_img/000000006842.png,experiment,u,u,811.2293445000105
V3,10,29,Male,Right,105,Block 1,1.6210354000068037,0.1,true,bus,bus,occlusion,high,mask,partial viewing,many small,Stimulus\all_stim\occlusion\partialviewing\manysmall\high\manysmall_partialViewing_high_bus3.png,mask_img/000000047229.png,experiment,o,o,813.9255398000096
V3,10,29,Male,Right,106,Block 1,2.4680000000080327,0.05,true,cat,cat,occlusion,low,mask,partial viewing,many small,Stimulus\all_stim\occlusion\partialviewing\manysmall\low\manysmall_partialViewing_low_cat8.png,mask_img/000000060245.png,experiment,u,u,817.1255257000012
V3,10,29,Male,Right,107,Block 1,1.1301031000039075,0.025,true,bus,bus,occlusion,control,mask,partial viewing,many small,Stimulus\all_stim\occlusion\partialviewing\manysmall\control\manysmall_partialViewing_control_bus10.png,mask_img/000000036482.png,experiment,o,o,819.3894693000038
V3,10,29,Male,Right,108,Block 1,1.2696953999984544,0.1,true,firehydrant,firehydrant,occlusion,low,mask,partial viewing,many small,Stimulus\all_stim\occlusion\partialviewing\manysmall\low\manysmall_partialViewing_low_firehydrant9.png,mask_img/000000061693.png,experiment,i,i,821.6053795000043
V3,10,29,Male,Right,109,Block 1,1.44673789999797,0.025,true,person,person,occlusion,high,mask,partial viewing,few large,Stimulus\all_stim\occlusion\partialviewing\fewlarge\high\fewlarge_partialViewing_high_person5.png,mask_img/000000020381.png,experiment,e,e,823.9814616000076
V3,10,29,Male,Right,110,Block 1,2.298740700003691,0.025,true,bird,bird,occlusion,high,mask,partial viewing,few large,Stimulus\all_stim\occlusion\partialviewing\fewlarge\high\fewlarge_partialViewing_high_bird7.png,mask_img/000000013949.png,experiment,p,p,826.9891986000002
V3,10,29,Male,Right,111,Block 1,1.0692773000046145,0.05,true,firehydrant,firehydrant,occlusion,control,mask,partial viewing,many small,Stimulus\all_stim\occlusion\partialviewing\manysmall\control\manysmall_partialViewing_control_firehydrant10.png,mask_img/000000039053.png,experiment,i,i,829.1092541999969
V3,10,29,Male,Right,112,Block 1,1.764464300009422,0.025,true,banana,banana,occlusion,high,mask,partial viewing,few large,Stimulus\all_stim\occlusion\partialviewing\fewlarge\high\fewlarge_partialViewing_high_banana8.png,mask_img/000000012733.png,experiment,w,w,831.5573777999962
V3,10,29,Male,Right,113,Block 1,1.9138109000050463,0.1,true,tree,tree,occlusion,high,mask,partial viewing,few large,Stimulus\all_stim\occlusion\partialviewing\fewlarge\high\fewlarge_partialViewing_high_tree6.png,mask_img/000000022142.png,experiment,r,r,834.285415899998
V3,10,29,Male,Right,114,Block 1,0.845165700011421,0.05,true,building,building,occlusion,high,mask,partial viewing,many small,Stimulus\all_stim\occlusion\partialviewing\manysmall\high\manysmall_partialViewing_high_building10.png,mask_img/000000044989.png,experiment,q,q,835.8695010000083
V3,10,29,Male,Right,115,Block 1,1.1653739000030328,0.05,true,bird,bird,occlusion,control,mask,partial viewing,few large,Stimulus\all_stim\occlusion\partialviewing\fewlarge\control\fewlarge_partialViewing_control_bird3.png,mask_img/000000001810.png,experiment,p,p,837.9412779999984
V3,10,29,Male,Right,116,Block 1,1.747524099992006,0.025,false,cat,tree,occlusion,low,mask,partial viewing,many small,Stimulus\all_stim\occlusion\partialviewing\manysmall\low\manysmall_partialViewing_low_cat6.png,mask_img/000000059918.png,experiment,r,u,840.7574220000097
V3,10,29,Male,Right,117,Block 1,1.201136100004078,0.05,true,bus,bus,occlusion,control,mask,partial viewing,few large,Stimulus\all_stim\occlusion\partialviewing\fewlarge\control\fewlarge_partialViewing_control_bus3.png,mask_img/000000005418.png,experiment,o,o,842.7013066000072
V3,10,29,Male,Right,118,Block 1,1.4463338999921689,0.025,true,tree,tree,occlusion,high,mask,partial viewing,few large,Stimulus\all_stim\occlusion\partialviewing\fewlarge\high\fewlarge_partialViewing_high_tree7.png,mask_img/000000022256.png,experiment,r,r,845.3173170000082
V3,10,29,Male,Right,119,Block 1,1.479837300008512,0.025,true,cat,cat,occlusion,control,mask,partial viewing,many small,Stimulus\all_stim\occlusion\partialviewing\manysmall\control\manysmall_partialViewing_control_cat5.png,mask_img/000000038601.png,experiment,u,u,847.5977723000105
V3,10,29,Male,Right,120,Block 1,1.3265768999990541,0.1,true,bus,bus,occlusion,control,mask,partial viewing,many small,Stimulus\all_stim\occlusion\partialviewing\manysmall\control\manysmall_partialViewing_control_bus3.png,mask_img/000000036765.png,experiment,o,o,849.7015738000046
V3,10,29,Male,Right,121,Block 1,1.162737399994512,0.1,true,person,person,occlusion,low,mask,partial viewing,many small,Stimulus\all_stim\occlusion\partialviewing\manysmall\low\manysmall_partialViewing_low_person6.png,mask_img/000000062337.png,experiment,e,e,851.9816052000097
V3,10,29,Male,Right,122,Block 1,1.7547226000024239,0.1,false,cat,person,occlusion,high,mask,partial viewing,many small,Stimulus\all_stim\occlusion\partialviewing\manysmall\high\manysmall_partialViewing_high_cat8.png,mask_img/000000049763.png,experiment,e,u,854.5892935000011
V3,10,29,Male,Right,123,Block 1,1.184676799995941,0.1,true,bus,bus,occlusion,high,mask,partial viewing,few large,Stimulus\all_stim\occlusion\partialviewing\fewlarge\high\fewlarge_partialViewing_high_bus4.png,mask_img/000000015927.png,experiment,o,o,856.9016343999974
V3,10,29,Male,Right,124,Block 1,0.856939200006309,0.025,true,bus,bus,occlusion,low,mask,partial viewing,few large,Stimulus\all_stim\occlusion\partialviewing\fewlarge\low\fewlarge_partialViewing_low_bus10.png,mask_img/000000025855.png,experiment,o,o,858.5173356000014
V3,10,29,Male,Right,125,Block 1,1.3827881000033813,0.025,false,bird,person,occlusion,low,mask,partial viewing,many small,Stimulus\all_stim\occlusion\partialviewing\manysmall\low\manysmall_partialViewing_low_bird4.png,mask_img/000000055859.png,experiment,e,p,860.6374875000038
V3,10,29,Male,Right,126,Block 1,0.8618212000001222,0.05,true,bus,bus,occlusion,control,mask,partial viewing,many small,Stimulus\all_stim\occlusion\partialviewing\manysmall\control\manysmall_partialViewing_control_bus4.png,mask_img/000000036966.png,experiment,o,o,862.5653700999974
V3,10,29,Male,Right,127,Block 1,1.1180970999994315,0.025,true,person,person,occlusion,low,mask,partial viewing,few large,Stimulus\all_stim\occlusion\partialviewing\fewlarge\low\fewlarge_partialViewing_low_person3.png,mask_img/000000029506.png,experiment,e,e,864.4453234999964
V3,10,29,Male,Right,128,Block 1,1.2424073000001954,0.05,true,building,building,occlusion,low,mask,partial viewing,few large,Stimulus\all_stim\occlusion\partialviewing\fewlarge\low\fewlarge_partialViewing_low_building5.png,mask_img/000000025034.png,experiment,q,q,866.5496364999999
V3,10,29,Male,Right,129,Block 1,1.1739053999917815,0.05,false,bird,person,occlusion,high,mask,partial viewing,many small,Stimulus\all_stim\occlusion\partialviewing\manysmall\high\manysmall_partialViewing_high_bird3.png,mask_img/000000044123.png,experiment,e,p,868.7174449000013
V3,10,29,Male,Right,130,Block 1,1.3389164000109304,0.025,true,firehydrant,firehydrant,occlusion,high,mask,partial viewing,few large,Stimulus\all_stim\occlusion\partialviewing\fewlarge\high\fewlarge_partialViewing_high_firehydrant9.png,mask_img/000000019725.png,experiment,i,i,871.1173452000075
V3,10,29,Male,Right,131,Block 1,0.7916187999944668,0.025,true,building,building,occlusion,high,mask,partial viewing,few large,Stimulus\all_stim\occlusion\partialviewing\fewlarge\high\fewlarge_partialViewing_high_building10.png,mask_img/000000014428.png,experiment,q,q,873.0615536999976
V3,10,29,Male,Right,132,Block 1,1.0746299000020372,0.05,false,banana,bird,occlusion,high,mask,partial viewing,few large,Stimulus\all_stim\occlusion\partialviewing\fewlarge\high\fewlarge_partialViewing_high_banana10.png,mask_img/000000012178.png,experiment,p,w,875.2216446000093
V3,10,29,Male,Right,133,Block 1,1.5173355000006268,0.1,false,bird,person,occlusion,high,mask,partial viewing,many small,Stimulus\all_stim\occlusion\partialviewing\manysmall\high\manysmall_partialViewing_high_bird10.png,mask_img/000000044065.png,experiment,e,p,877.7096370000072
V3,10,29,Male,Right,134,Block 1,2.1512715999997454,0.05,false,banana,bird,occlusion,high,mask,partial viewing,many small,Stimulus\all_stim\occlusion\partialviewing\manysmall\high\manysmall_partialViewing_high_banana9.png,mask_img/000000043579.png,experiment,p,w,880.5814278000034
V3,10,29,Male,Right,135,Block 1,1.2001858000003267,0.025,true,bird,bird,occlusion,high,mask,partial viewing,many small,Stimulus\all_stim\occlusion\partialviewing\manysmall\high\manysmall_partialViewing_high_bird5.png,mask_img/000000044437.png,experiment,p,p,882.5255840000027
V3,10,29,Male,Right,136,Block 1,1.1160268999956315,0.025,false,banana,bird,occlusion,high,mask,partial viewing,many small,Stimulus\all_stim\occlusion\partialviewing\manysmall\high\manysmall_partialViewing_high_banana8.png,mask_img/000000043291.png,experiment,p,w,884.6774817999976
V3,10,29,Male,Right,137,Block 1,1.2211384000111138,0.05,true,bus,bus,occlusion,control,mask,partial viewing,many small,Stimulus\all_stim\occlusion\partialviewing\manysmall\control\manysmall_partialViewing_control_bus7.png,mask_img/000000037339.png,experiment,o,o,886.7014701000007
V3,10,29,Male,Right,138,Block 1,1.4716087999986485,0.05,true,tree,tree,occlusion,high,mask,partial viewing,few large,Stimulus\all_stim\occlusion\partialviewing\fewlarge\high\fewlarge_partialViewing_high_tree7.png,mask_img/000000022256.png,experiment,r,r,889.0296594000101
V3,10,29,Male,Right,139,Block 1,1.4314446000062162,0.05,true,cat,cat,occlusion,high,mask,partial viewing,few large,Stimulus\all_stim\occlusion\partialviewing\fewlarge\high\fewlarge_partialViewing_high_cat9.png,mask_img/000000017858.png,experiment,u,u,891.5094651999971
V3,10,29,Male,Right,140,Block 1,1.1386888999986695,0.05,true,tree,tree,occlusion,high,mask,partial viewing,few large,Stimulus\all_stim\occlusion\partialviewing\fewlarge\high\fewlarge_partialViewing_high_tree8.png,mask_img/000000022355.png,experiment,r,r,893.6533248000051
V3,10,29,Male,Right,141,Block 1,1.006697399992845,0.05,true,bus,bus,occlusion,low,mask,partial viewing,many small,Stimulus\all_stim\occlusion\partialviewing\manysmall\low\manysmall_partialViewing_low_bus10.png,mask_img/000000058595.png,experiment,o,o,895.7096033999987
V3,10,29,Male,Right,142,Block 1,1.764423100001295,0.1,true,firehydrant,firehydrant,occlusion,control,mask,partial viewing,many small,Stimulus\all_stim\occlusion\partialviewing\manysmall\control\manysmall_partialViewing_control_firehydrant2.png,mask_img/000000039089.png,experiment,i,i,898.6457439000078
V3,10,29,Male,Right,143,Block 1,2.075711900004535,0.025,false,bird,tree,occlusion,low,mask,partial viewing,many small,Stimulus\all_stim\occlusion\partialviewing\manysmall\low\manysmall_partialViewing_low_bird6.png,mask_img/000000056007.png,experiment,r,p,901.5654941000103
V3,10,29,Male,Right,144,Block 1,1.0673308999976143,0.025,true,person,person,occlusion,low,mask,partial viewing,many small,Stimulus\all_stim\occlusion\partialviewing\manysmall\low\manysmall_partialViewing_low_person5.png,mask_img/000000062193.png,experiment,e,e,912.0695355000062
V3,10,29,Male,Right,145,Block 2,1.1712645000079647,0.05,true,bus,bus,occlusion,high,mask,partial viewing,many small,Stimulus\all_stim\occlusion\partialviewing\manysmall\high\manysmall_partialViewing_high_bus5.png,mask_img/000000047395.png,experiment,o,o,914.0136367000086
V3,10,29,Male,Right,146,Block 2,1.0738208999973722,0.05,true,person,person,occlusion,control,mask,partial viewing,many small,Stimulus\all_stim\occlusion\partialviewing\manysmall\control\manysmall_partialViewing_control_person2.png,mask_img/000000039971.png,experiment,e,e,916.1494572000083
V3,10,29,Male,Right,147,Block 2,1.4133223000098951,0.025,true,firehydrant,firehydrant,occlusion,control,mask,partial viewing,few large,Stimulus\all_stim\occlusion\partialviewing\fewlarge\control\fewlarge_partialViewing_control_firehydrant1.png,mask_img/000000007740.png,experiment,i,i,918.6614989000082
V3,10,29,Male,Right,148,Block 2,2.406571100000292,0.05,true,person,person,occlusion,high,mask,partial viewing,many small,Stimulus\all_stim\occlusion\partialviewing\manysmall\high\manysmall_partialViewing_high_person1.png,mask_img/000000051310.png,experiment,e,e,921.8297753000079
V3,10,29,Male,Right,149,Block 2,1.3120928000134882,0.05,true,tree,tree,occlusion,low,mask,partial viewing,many small,Stimulus\all_stim\occlusion\partialviewing\manysmall\low\manysmall_partialViewing_low_tree3.png,mask_img/000000063147.png,experiment,r,r,924.0457001000032
V3,10,29,Male,Right,150,Block 2,1.1627065999928163,0.1,true,person,person,occlusion,high,mask,partial viewing,few large,Stimulus\all_stim\occlusion\partialviewing\fewlarge\high\fewlarge_partialViewing_high_person7.png,mask_img/000000020421.png,experiment,e,e,925.9253562000085
V3,10,29,Male,Right,151,Block 2,0.8634159000066575,0.1,true,tree,tree,occlusion,low,mask,partial viewing,many small,Stimulus\all_stim\occlusion\partialviewing\manysmall\low\manysmall_partialViewing_low_tree3.png,mask_img/000000063147.png,experiment,r,r,927.7495507999993
V3,10,29,Male,Right,152,Block 2,1.2343044000008376,0.025,true,person,person,occlusion,high,mask,partial viewing,few large,Stimulus\all_stim\occlusion\partialviewing\fewlarge\high\fewlarge_partialViewing_high_person10.png,mask_img/000000019927.png,experiment,e,e,930.0773689000052
V3,10,29,Male,Right,153,Block 2,0.7387687000009464,0.1,true,person,person,occlusion,control,mask,partial viewing,few large,Stimulus\all_stim\occlusion\partialviewing\fewlarge\control\fewlarge_partialViewing_control_person4.png,mask_img/000000009178.png,experiment,e,e,931.974038100001
V3,10,29,Male,Right,154,Block 2,0.650150700006634,0.05,true,building,building,occlusion,control,mask,partial viewing,few large,Stimulus\all_stim\occlusion\partialviewing\fewlarge\control\fewlarge_partialViewing_control_building7.png,mask_img/000000004936.png,experiment,q,q,933.6213053999963
V3,10,29,Male,Right,155,Block 2,1.0184256000065943,0.1,true,person,person,occlusion,low,mask,partial viewing,few large,Stimulus\all_stim\occlusion\partialviewing\fewlarge\low\fewlarge_partialViewing_low_person3.png,mask_img/000000029506.png,experiment,e,e,935.5334034999978
V3,10,29,Male,Right,156,Block 2,1.2883339000109117,0.1,true,cat,cat,occlusion,high,mask,partial viewing,few large,Stimulus\all_stim\occlusion\partialviewing\fewlarge\high\fewlarge_partialViewing_high_cat2.png,mask_img/000000017352.png,experiment,u,u,937.7734696999978
V3,10,29,Male,Right,157,Block 2,0.6943412000109674,0.1,true,building,building,occlusion,control,mask,partial viewing,many small,Stimulus\all_stim\occlusion\partialviewing\manysmall\control\manysmall_partialViewing_control_building1.png,mask_img/000000035818.png,experiment,q,q,939.4294873000035
V3,10,29,Male,Right,158,Block 2,0.7325965000054566,0.1,true,building,building,occlusion,high,mask,partial viewing,many small,Stimulus\all_stim\occlusion\partialviewing\manysmall\high\manysmall_partialViewing_high_building8.png,mask_img/000000046245.png,experiment,q,q,940.8627473000088
V3,10,29,Male,Right,159,Block 2,1.1167545999924187,0.1,true,tree,tree,occlusion,control,mask,partial viewing,few large,Stimulus\all_stim\occlusion\partialviewing\fewlarge\control\fewlarge_partialViewing_control_tree4.png,mask_img/000000010969.png,experiment,r,r,942.8055869000091
V3,10,29,Male,Right,160,Block 2,1.143354100000579,0.025,true,cat,cat,occlusion,low,mask,partial viewing,few large,Stimulus\all_stim\occlusion\partialviewing\fewlarge\low\fewlarge_partialViewing_low_cat7.png,mask_img/000000027890.png,experiment,u,u,944.7575760000036
V3,10,29,Male,Right,161,Block 2,1.9638498999993317,0.05,true,bird,bird,occlusion,low,mask,partial viewing,many small,Stimulus\all_stim\occlusion\partialviewing\manysmall\low\manysmall_partialViewing_low_bird1.png,mask_img/000000055694.png,experiment,p,p,947.4618310000078
V3,10,29,Male,Right,162,Block 2,1.0764276999980211,0.1,true,firehydrant,firehydrant,occlusion,control,mask,partial viewing,many small,Stimulus\all_stim\occlusion\partialviewing\manysmall\control\manysmall_partialViewing_control_firehydrant3.png,mask_img/000000039113.png,experiment,i,i,949.2614101000072
V3,10,29,Male,Right,163,Block 2,1.955522000003839,0.1,false,bird,tree,occlusion,high,mask,partial viewing,many small,Stimulus\all_stim\occlusion\partialviewing\manysmall\high\manysmall_partialViewing_high_bird4.png,mask_img/000000044136.png,experiment,r,p,952.3334984999965
V3,10,29,Male,Right,164,Block 2,2.521916300000157,0.05,false,building,tree,occlusion,low,mask,partial viewing,few large,Stimulus\all_stim\occlusion\partialviewing\fewlarge\low\fewlarge_partialViewing_low_building6.png,mask_img/000000025143.png,experiment,r,q,955.6619894000032
V3,10,29,Male,Right,165,Block 2,1.7462421999953222,0.1,true,bus,bus,occlusion,low,mask,partial viewing,many small,Stimulus\all_stim\occlusion\partialviewing\manysmall\low\manysmall_partialViewing_low_bus9.png,mask_img/000000058910.png,experiment,o,o,958.293350100008
V3,10,29,Male,Right,166,Block 2,2.1960336999909487,0.05,false,banana,bird,occlusion,low,mask,partial viewing,many small,Stimulus\all_stim\occlusion\partialviewing\manysmall\low\manysmall_partialViewing_low_banana10.png,mask_img/000000054723.png,experiment,p,w,961.301689800006
V3,10,29,Male,Right,167,Block 2,0.7492553000047337,0.05,true,building,building,occlusion,high,mask,partial viewing,few large,Stimulus\all_stim\occlusion\partialviewing\fewlarge\high\fewlarge_partialViewing_high_building3.png,mask_img/000000014567.png,experiment,q,q,962.8853591000079
V3,10,29,Male,Right,168,Block 2,0.6583856999932323,0.025,true,building,building,occlusion,low,mask,partial viewing,many small,Stimulus\all_stim\occlusion\partialviewing\manysmall\low\manysmall_partialViewing_low_building6.png,mask_img/000000057979.png,experiment,q,q,964.5333530000062
V3,10,29,Male,Right,169,Block 2,0.7197695000068052,0.025,true,building,building,occlusion,high,mask,partial viewing,many small,Stimulus\all_stim\occlusion\partialviewing\manysmall\high\manysmall_partialViewing_high_building1.png,mask_img/000000044950.png,experiment,q,q,965.926140800002
V3,10,29,Male,Right,170,Block 2,1.5216958000091836,0.1,true,banana,banana,occlusion,high,mask,partial viewing,many small,Stimulus\all_stim\occlusion\partialviewing\manysmall\high\manysmall_partialViewing_high_banana4.png,mask_img/000000042499.png,experiment,w,w,968.2215486000059
V3,10,29,Male,Right,171,Block 2,1.1207747000007657,0.1,true,tree,tree,occlusion,control,mask,partial viewing,few large,Stimulus\all_stim\occlusion\partialviewing\fewlarge\control\fewlarge_partialViewing_control_tree9.png,mask_img/000000011701.png,experiment,r,r,970.1258621000015
V3,10,29,Male,Right,172,Block 2,1.1353961999993771,0.05,true,person,person,occlusion,high,mask,partial viewing,few large,Stimulus\all_stim\occlusion\partialviewing\fewlarge\high\fewlarge_partialViewing_high_person5.png,mask_img/000000020381.png,experiment,e,e,972.1093994999974
V3,10,29,Male,Right,173,Block 2,0.6813396999932593,0.025,true,building,building,occlusion,control,mask,partial viewing,many small,Stimulus\all_stim\occlusion\partialviewing\manysmall\control\manysmall_partialViewing_control_building2.png,mask_img/000000035864.png,experiment,q,q,973.5813760000019
V3,10,29,Male,Right,174,Block 2,1.3613131000020076,0.05,true,tree,tree,occlusion,control,mask,partial viewing,many small,Stimulus\all_stim\occlusion\partialviewing\manysmall\control\manysmall_partialViewing_control_tree3.png,mask_img/000000041014.png,experiment,r,r,975.7495295999979
V3,10,29,Male,Right,175,Block 2,2.124438300001202,0.1,true,bird,bird,occlusion,high,mask,partial viewing,few large,Stimulus\all_stim\occlusion\partialviewing\fewlarge\high\fewlarge_partialViewing_high_bird4.png,mask_img/000000013721.png,experiment,p,p,978.9335504000046
V3,10,29,Male,Right,176,Block 2,0.7233378000091761,0.025,true,building,building,occlusion,control,mask,partial viewing,many small,Stimulus\all_stim\occlusion\partialviewing\manysmall\control\manysmall_partialViewing_control_building1.png,mask_img/000000035818.png,experiment,q,q,980.3814418999973
V3,10,29,Male,Right,177,Block 2,1.1399126000032993,0.05,true,bird,bird,occlusion,high,mask,partial viewing,many small,Stimulus\all_stim\occlusion\partialviewing\manysmall\high\manysmall_partialViewing_high_bird9.png,mask_img/000000044946.png,experiment,p,p,982.6775500000076
V3,10,29,Male,Right,178,Block 2,1.6849137999961386,0.05,true,cat,cat,occlusion,control,mask,partial viewing,few large,Stimulus\all_stim\occlusion\partialviewing\fewlarge\control\fewlarge_partialViewing_control_cat6.png,mask_img/000000007179.png,experiment,u,u,985.2854458000074
V3,10,29,Male,Right,179,Block 2,1.9621148000005633,0.05,false,cat,firehydrant,occlusion,high,mask,partial viewing,many small,Stimulus\all_stim\occlusion\partialviewing\manysmall\high\manysmall_partialViewing_high_cat8.png,mask_img/000000049763.png,experiment,i,u,988.2613641000062
V3,10,29,Male,Right,180,Block 2,1.381459199998062,0.1,true,bus,bus,occlusion,high,mask,partial viewing,many small,Stimulus\all_stim\occlusion\partialviewing\manysmall\high\manysmall_partialViewing_high_bus10.png,mask_img/000000046805.png,experiment,o,o,990.5094240000035
V3,10,29,Male,Right,181,Block 2,0.5917341000022134,0.05,true,bus,bus,occlusion,control,mask,partial viewing,few large,Stimulus\all_stim\occlusion\partialviewing\fewlarge\control\fewlarge_partialViewing_control_bus10.png,mask_img/000000005282.png,experiment,o,o,991.9645076000015
V3,10,29,Male,Right,182,Block 2,1.0174004000000423,0.05,true,tree,tree,occlusion,low,mask,partial viewing,few large,Stimulus\all_stim\occlusion\partialviewing\fewlarge\low\fewlarge_partialViewing_low_tree1.png,mask_img/000000031053.png,experiment,r,r,993.8861543000094
V3,10,29,Male,Right,183,Block 2,1.9119972000044072,0.025,true,firehydrant,firehydrant,occlusion,low,mask,partial viewing,many small,Stimulus\all_stim\occlusion\partialviewing\manysmall\low\manysmall_partialViewing_low_firehydrant3.png,mask_img/000000060572.png,experiment,i,i,996.565556600006
V3,10,29,Male,Right,184,Block 2,2.212678700001561,0.025,false,firehydrant,tree,occlusion,low,mask,partial viewing,many small,Stimulus\all_stim\occlusion\partialviewing\manysmall\low\manysmall_partialViewing_low_firehydrant2.png,mask_img/000000060548.png,experiment,r,i,999.8618268999999
V3,10,29,Male,Right,185,Block 2,2.036483699994278,0.025,false,person,cat,occlusion,low,mask,partial viewing,few large,Stimulus\all_stim\occlusion\partialviewing\fewlarge\low\fewlarge_partialViewing_low_person9.png,mask_img/000000031017.png,experiment,u,e,1002.6054296000075
V3,10,29,Male,Right,186,Block 2,1.818559900013497,0.025,false,banana,person,occlusion,control,mask,partial viewing,few large,Stimulus\all_stim\occlusion\partialviewing\fewlarge\control\fewlarge_partialViewing_control_banana9.png,mask_img/000000000731.png,experiment,e,w,1005.3895691000071
V3,10,29,Male,Right,187,Block 2,2.5606614999996964,0.05,false,firehydrant,cat,occlusion,high,mask,partial viewing,many small,Stimulus\all_stim\occlusion\partialviewing\manysmall\high\manysmall_partialViewing_high_firehydrant7.png,mask_img/000000050790.png,experiment,u,i,1008.6936705999979
V3,10,29,Male,Right,188,Block 2,1.1813523000018904,0.05,true,person,person,occlusion,control,mask,partial viewing,few large,Stimulus\all_stim\occlusion\partialviewing\fewlarge\control\fewlarge_partialViewing_control_person5.png,mask_img/000000009286.png,experiment,e,e,1010.7335803000024
V3,10,29,Male,Right,189,Block 2,2.579992200000561,0.025,true,firehydrant,firehydrant,occlusion,high,mask,partial viewing,few large,Stimulus\all_stim\occlusion\partialviewing\fewlarge\high\fewlarge_partialViewing_high_firehydrant3.png,mask_img/000000018864.png,experiment,i,i,1014.0700901000091
V3,10,29,Male,Right,190,Block 2,1.185630099993432,0.1,true,firehydrant,firehydrant,occlusion,high,mask,partial viewing,many small,Stimulus\all_stim\occlusion\partialviewing\manysmall\high\manysmall_partialViewing_high_firehydrant2.png,mask_img/000000050239.png,experiment,i,i,1016.1814742999995
V3,10,29,Male,Right,191,Block 2,1.541232100003981,0.025,true,banana,banana,occlusion,low,mask,partial viewing,few large,Stimulus\all_stim\occlusion\partialviewing\fewlarge\low\fewlarge_partialViewing_low_banana9.png,mask_img/000000023967.png,experiment,w,w,1018.6774370000057
V3,10,29,Male,Right,192,Block 2,2.0590219000005163,0.05,true,banana,banana,occlusion,low,mask,partial viewing,few large,Stimulus\all_stim\occlusion\partialviewing\fewlarge\low\fewlarge_partialViewing_low_banana4.png,mask_img/000000023015.png,experiment,w,w,1021.9025862999988
V3,10,29,Male,Right,193,Block 2,1.9624972000019625,0.025,false,bird,banana,occlusion,high,mask,partial viewing,few large,Stimulus\all_stim\occlusion\partialviewing\fewlarge\high\fewlarge_partialViewing_high_bird3.png,mask_img/000000013455.png,experiment,w,p,1024.5895034999994
V3,10,29,Male,Right,194,Block 2,1.0491755999973975,0.05,true,person,person,occlusion,low,mask,partial viewing,few large,Stimulus\all_stim\occlusion\partialviewing\fewlarge\low\fewlarge_partialViewing_low_person2.png,mask_img/000000029274.png,experiment,e,e,1026.3336186000088
V3,10,29,Male,Right,195,Block 2,0.8990843999927165,0.025,true,person,person,occlusion,control,mask,partial viewing,many small,Stimulus\all_stim\occlusion\partialviewing\manysmall\control\manysmall_partialViewing_control_person2.png,mask_img/000000039971.png,experiment,e,e,1028.1416144000104
V3,10,29,Male,Right,196,Block 2,1.370234200003324,0.05,true,cat,cat,occlusion,low,mask,partial viewing,few large,Stimulus\all_stim\occlusion\partialviewing\fewlarge\low\fewlarge_partialViewing_low_cat9.png,mask_img/000000028231.png,experiment,u,u,1030.3014840999967
V3,10,29,Male,Right,197,Block 2,1.0927843000099529,0.1,true,firehydrant,firehydrant,occlusion,control,mask,partial viewing,many small,Stimulus\all_stim\occlusion\partialviewing\manysmall\control\manysmall_partialViewing_control_firehydrant8.png,mask_img/000000039553.png,experiment,i,i,1032.3576261999988
V3,10,29,Male,Right,198,Block 2,0.7573930000071414,0.025,true,building,building,occlusion,high,mask,partial viewing,few large,Stimulus\all_stim\occlusion\partialviewing\fewlarge\high\fewlarge_partialViewing_high_building3.png,mask_img/000000014567.png,experiment,q,q,1034.1573691000085
V3,10,29,Male,Right,199,Block 2,1.1566508999967482,0.1,true,bus,bus,occlusion,low,mask,partial viewing,few large,Stimulus\all_stim\occlusion\partialviewing\fewlarge\low\fewlarge_partialViewing_low_bus2.png,mask_img/000000025858.png,experiment,o,o,1036.1735210000043
V3,10,29,Male,Right,200,Block 2,1.557607899987488,0.05,true,person,person,occlusion,control,mask,partial viewing,few large,Stimulus\all_stim\occlusion\partialviewing\fewlarge\control\fewlarge_partialViewing_control_person3.png,mask_img/000000008920.png,experiment,e,e,1038.885468499997
V3,10,29,Male,Right,201,Block 2,0.9883183000056306,0.025,true,person,person,occlusion,low,mask,partial viewing,few large,Stimulus\all_stim\occlusion\partialviewing\fewlarge\low\fewlarge_partialViewing_low_person2.png,mask_img/000000029274.png,experiment,e,e,1040.557469899999
V3,10,29,Male,Right,202,Block 2,1.1329140000016196,0.1,true,tree,tree,occlusion,high,mask,partial viewing,many small,Stimulus\all_stim\occlusion\partialviewing\manysmall\high\manysmall_partialViewing_high_tree5.png,mask_img/000000053410.png,experiment,r,r,1042.7176620999962
V3,10,29,Male,Right,203,Block 2,0.6744632000045385,0.05,true,building,building,occlusion,low,mask,partial viewing,few large,Stimulus\all_stim\occlusion\partialviewing\fewlarge\low\fewlarge_partialViewing_low_building1.png,mask_img/000000024552.png,experiment,q,q,1044.2569870000007
V3,10,29,Male,Right,204,Block 2,2.894793099985691,0.025,false,cat,person,occlusion,low,mask,partial viewing,many small,Stimulus\all_stim\occlusion\partialviewing\manysmall\low\manysmall_partialViewing_low_cat8.png,mask_img/000000060245.png,experiment,e,u,1048.0944986000104
V3,10,29,Male,Right,205,Block 2,0.9728223999991314,0.025,true,tree,tree,occlusion,high,mask,partial viewing,many small,Stimulus\all_stim\occlusion\partialviewing\manysmall\high\manysmall_partialViewing_high_tree3.png,mask_img/000000052936.png,experiment,r,r,1049.9575524999964
V3,10,29,Male,Right,206,Block 2,0.5932775999972364,0.05,true,tree,tree,occlusion,high,mask,partial viewing,many small,Stimulus\all_stim\occlusion\partialviewing\manysmall\high\manysmall_partialViewing_high_tree4.png,mask_img/000000053143.png,experiment,r,r,1051.443811300007
V3,10,29,Male,Right,207,Block 2,0.7154206999985036,0.025,true,building,building,occlusion,high,mask,partial viewing,many small,Stimulus\all_stim\occlusion\partialviewing\manysmall\high\manysmall_partialViewing_high_building8.png,mask_img/000000046245.png,experiment,q,q,1053.1335025000008
V3,10,29,Male,Right,208,Block 2,0.7556382999900961,0.1,true,building,building,occlusion,high,mask,partial viewing,few large,Stimulus\all_stim\occlusion\partialviewing\fewlarge\high\fewlarge_partialViewing_high_building3.png,mask_img/000000014567.png,experiment,q,q,1054.8377102000086
V3,10,29,Male,Right,209,Block 2,1.7423018999979831,0.025,false,bus,building,occlusion,high,mask,partial viewing,many small,Stimulus\all_stim\occlusion\partialviewing\manysmall\high\manysmall_partialViewing_high_bus9.png,mask_img/000000048268.png,experiment,q,o,1057.5734805999964
V3,10,29,Male,Right,210,Block 2,1.7172228999988874,0.025,false,bird,building,occlusion,low,mask,partial viewing,few large,Stimulus\all_stim\occlusion\partialviewing\fewlarge\low\fewlarge_partialViewing_low_bird3.png,mask_img/000000024157.png,experiment,q,p,1060.061537200003
V3,10,29,Male,Right,211,Block 2,2.317908900004113,0.025,true,person,person,occlusion,control,mask,partial viewing,few large,Stimulus\all_stim\occlusion\partialviewing\fewlarge\control\fewlarge_partialViewing_control_person4.png,mask_img/000000009178.png,experiment,e,e,1063.5335671000066
V3,10,29,Male,Right,212,Block 2,1.1858771999977762,0.1,true,banana,banana,occlusion,high,mask,partial viewing,few large,Stimulus\all_stim\occlusion\partialviewing\fewlarge\high\fewlarge_partialViewing_high_banana4.png,mask_img/000000012377.png,experiment,w,w,1065.4374949000048
V3,10,29,Male,Right,213,Block 2,0.7500978000025498,0.05,false,firehydrant,building,occlusion,high,mask,partial viewing,few large,Stimulus\all_stim\occlusion\partialviewing\fewlarge\high\fewlarge_partialViewing_high_firehydrant2.png,mask_img/000000018743.png,experiment,q,i,1067.1894921000057
V3,10,29,Male,Right,214,Block 2,1.3803275000100257,0.1,true,bus,bus,occlusion,high,mask,partial viewing,few large,Stimulus\all_stim\occlusion\partialviewing\fewlarge\high\fewlarge_partialViewing_high_bus10.png,mask_img/000000015733.png,experiment,o,o,1069.309665599998
V3,10,29,Male,Right,215,Block 2,1.0680027000053087,0.1,false,cat,tree,occlusion,high,mask,partial viewing,many small,Stimulus\all_stim\occlusion\partialviewing\manysmall\high\manysmall_partialViewing_high_cat2.png,mask_img/000000049092.png,experiment,r,u,1071.1580216000002
V3,10,29,Male,Right,216,Block 2,1.1500215999985812,0.1,true,bird,bird,occlusion,high,mask,partial viewing,few large,Stimulus\all_stim\occlusion\partialviewing\fewlarge\high\fewlarge_partialViewing_high_bird2.png,mask_img/000000013169.png,experiment,p,p,1073.2856795999978
V3,10,29,Male,Right,217,Block 2,0.8387998999969568,0.05,true,bus,bus,occlusion,control,mask,partial viewing,few large,Stimulus\all_stim\occlusion\partialviewing\fewlarge\control\fewlarge_partialViewing_control_bus9.png,mask_img/000000006263.png,experiment,o,o,1075.1495342999988
V3,10,29,Male,Right,218,Block 2,1.0515260999964084,0.05,true,banana,banana,occlusion,low,mask,partial viewing,many small,Stimulus\all_stim\occlusion\partialviewing\manysmall\low\manysmall_partialViewing_low_banana2.png,mask_img/000000054759.png,experiment,w,w,1077.3893524000014
V3,10,29,Male,Right,219,Block 2,1.4251330999977654,0.1,true,banana,banana,occlusion,control,mask,partial viewing,many small,Stimulus\all_stim\occlusion\partialviewing\manysmall\control\manysmall_partialViewing_control_banana1.png,mask_img/000000033073.png,experiment,w,w,1079.997565400001
V3,10,29,Male,Right,220,Block 2,0.5798980999970809,0.1,true,banana,banana,occlusion,control,mask,partial viewing,many small,Stimulus\all_stim\occlusion\partialviewing\manysmall\control\manysmall_partialViewing_control_banana6.png,mask_img/000000033756.png,experiment,w,w,1081.6920439000096
V3,10,29,Male,Right,221,Block 2,1.0533912000100827,0.1,false,cat,bird,occlusion,low,mask,partial viewing,many small,Stimulus\all_stim\occlusion\partialviewing\manysmall\low\manysmall_partialViewing_low_cat9.png,mask_img/000000060387.png,experiment,p,u,1083.87781060001
V3,10,29,Male,Right,222,Block 2,1.0629799000016646,0.05,true,tree,tree,occlusion,high,mask,partial viewing,many small,Stimulus\all_stim\occlusion\partialviewing\manysmall\high\manysmall_partialViewing_high_tree6.png,mask_img/000000053539.png,experiment,r,r,1086.0536181000061
V3,10,29,Male,Right,223,Block 2,1.326699799989001,0.025,false,cat,bird,occlusion,high,mask,partial viewing,few large,Stimulus\all_stim\occlusion\partialviewing\fewlarge\high\fewlarge_partialViewing_high_cat7.png,mask_img/000000017580.png,experiment,p,u,1088.5100385999976
V3,10,29,Male,Right,224,Block 2,1.0825221999984933,0.1,true,bus,bus,occlusion,control,mask,partial viewing,few large,Stimulus\all_stim\occlusion\partialviewing\fewlarge\control\fewlarge_partialViewing_control_bus1.png,mask_img/000000005142.png,experiment,o,o,1090.7496754000022
V3,10,29,Male,Right,225,Block 2,1.2011451999860583,0.025,true,person,person,occlusion,control,mask,partial viewing,few large,Stimulus\all_stim\occlusion\partialviewing\fewlarge\control\fewlarge_partialViewing_control_person5.png,mask_img/000000009286.png,experiment,e,e,1092.6298582000018
V3,10,29,Male,Right,226,Block 2,2.0569345999974757,0.1,false,banana,bird,occlusion,high,mask,partial viewing,many small,Stimulus\all_stim\occlusion\partialviewing\manysmall\high\manysmall_partialViewing_high_banana7.png,mask_img/000000043024.png,experiment,p,w,1095.5420454999985
V3,10,29,Male,Right,227,Block 2,0.8228288999962388,0.025,true,bird,bird,occlusion,low,mask,partial viewing,few large,Stimulus\all_stim\occlusion\partialviewing\fewlarge\low\fewlarge_partialViewing_low_bird5.png,mask_img/000000024239.png,experiment,p,p,1097.2375563000096
V3,10,29,Male,Right,228,Block 2,1.034428899991326,0.1,true,person,person,occlusion,control,mask,partial viewing,many small,Stimulus\all_stim\occlusion\partialviewing\manysmall\control\manysmall_partialViewing_control_person8.png,mask_img/000000040466.png,experiment,e,e,1099.0054739000043
V3,10,29,Male,Right,229,Block 2,1.3297430999955395,0.025,true,bird,bird,occlusion,low,mask,partial viewing,few large,Stimulus\all_stim\occlusion\partialviewing\fewlarge\low\fewlarge_partialViewing_low_bird4.png,mask_img/000000024193.png,experiment,p,p,1101.1415795000066
V3,10,29,Male,Right,230,Block 2,1.5112026999995578,0.05,true,person,person,occlusion,high,mask,partial viewing,few large,Stimulus\all_stim\occlusion\partialviewing\fewlarge\high\fewlarge_partialViewing_high_person3.png,mask_img/000000020147.png,experiment,e,e,1103.349529500003
V3,10,29,Male,Right,231,Block 2,1.598000600002706,0.05,true,firehydrant,firehydrant,occlusion,low,mask,partial viewing,many small,Stimulus\all_stim\occlusion\partialviewing\manysmall\low\manysmall_partialViewing_low_firehydrant9.png,mask_img/000000061693.png,experiment,i,i,1105.677529499997
V3,10,29,Male,Right,232,Block 2,1.8067428000067594,0.1,true,banana,banana,occlusion,low,mask,partial viewing,many small,Stimulus\all_stim\occlusion\partialviewing\manysmall\low\manysmall_partialViewing_low_banana1.png,mask_img/000000054532.png,experiment,w,w,1108.5654415000026
V3,10,29,Male,Right,233,Block 2,0.7483232000085991,0.1,true,building,building,occlusion,low,mask,partial viewing,many small,Stimulus\all_stim\occlusion\partialviewing\manysmall\low\manysmall_partialViewing_low_building7.png,mask_img/000000058021.png,experiment,q,q,1110.3254233000043
V3,10,29,Male,Right,234,Block 2,1.2640325999964261,0.1,true,tree,tree,occlusion,control,mask,partial viewing,few large,Stimulus\all_stim\occlusion\partialviewing\fewlarge\control\fewlarge_partialViewing_control_tree1.png,mask_img/000000010281.png,experiment,r,r,1112.6375610999967
V3,10,29,Male,Right,235,Block 2,1.7416101999988314,0.1,true,bus,bus,occlusion,control,mask,partial viewing,many small,Stimulus\all_stim\occlusion\partialviewing\manysmall\control\manysmall_partialViewing_control_bus7.png,mask_img/000000037339.png,experiment,o,o,1115.2137680000014
V3,10,29,Male,Right,236,Block 2,1.133938799990574,0.05,true,bird,bird,occlusion,low,mask,partial viewing,many small,Stimulus\all_stim\occlusion\partialviewing\manysmall\low\manysmall_partialViewing_low_bird5.png,mask_img/000000055942.png,experiment,p,p,1117.149449500008
V3,10,29,Male,Right,237,Block 2,3.3567860999901313,0.1,true,building,building,occlusion,control,mask,partial viewing,many small,Stimulus\all_stim\occlusion\partialviewing\manysmall\control\manysmall_partialViewing_control_building9.png,mask_img/000000036226.png,experiment,q,q,1121.6857743
V3,10,29,Male,Right,238,Block 2,0.8483152999979211,0.025,true,building,building,occlusion,high,mask,partial viewing,few large,Stimulus\all_stim\occlusion\partialviewing\fewlarge\high\fewlarge_partialViewing_high_building9.png,mask_img/000000015619.png,experiment,q,q,1123.3336323999974
V3,10,29,Male,Right,239,Block 2,0.9206674999877578,0.1,true,bird,bird,occlusion,low,mask,partial viewing,many small,Stimulus\all_stim\occlusion\partialviewing\manysmall\low\manysmall_partialViewing_low_bird1.png,mask_img/000000055694.png,experiment,p,p,1125.1494735000015
V3,10,29,Male,Right,240,Block 2,1.7344546999956947,0.05,false,cat,tree,occlusion,low,mask,partial viewing,many small,Stimulus\all_stim\occlusion\partialviewing\manysmall\low\manysmall_partialViewing_low_cat4.png,mask_img/000000059483.png,experiment,r,u,1127.6941270000098
V3,10,29,Male,Right,241,Block 2,2.160852500004694,0.1,true,banana,banana,occlusion,low,mask,partial viewing,few large,Stimulus\all_stim\occlusion\partialviewing\fewlarge\low\fewlarge_partialViewing_low_banana7.png,mask_img/000000023511.png,experiment,w,w,1130.7897075000074
V3,10,29,Male,Right,242,Block 2,1.5132851999951527,0.025,true,bus,bus,occlusion,high,mask,partial viewing,many small,Stimulus\all_stim\occlusion\partialviewing\manysmall\high\manysmall_partialViewing_high_bus7.png,mask_img/000000047471.png,experiment,o,o,1133.3577001000085
V3,10,29,Male,Right,243,Block 2,0.8976518999988912,0.1,false,banana,building,occlusion,low,mask,partial viewing,few large,Stimulus\all_stim\occlusion\partialviewing\fewlarge\low\fewlarge_partialViewing_low_banana6.png,mask_img/000000023137.png,experiment,q,w,1135.413628299997
V3,10,29,Male,Right,244,Block 2,0.9584791999950539,0.1,true,bird,bird,occlusion,low,mask,partial viewing,few large,Stimulus\all_stim\occlusion\partialviewing\fewlarge\low\fewlarge_partialViewing_low_bird1.png,mask_img/000000023984.png,experiment,p,p,1137.3174289000017
V3,10,29,Male,Right,245,Block 2,0.6843934000062291,0.025,true,building,building,occlusion,high,mask,partial viewing,many small,Stimulus\all_stim\occlusion\partialviewing\manysmall\high\manysmall_partialViewing_high_building3.png,mask_img/000000045655.png,experiment,q,q,1138.8869005000015
V3,10,29,Male,Right,246,Block 2,0.8203183000005083,0.025,true,bird,bird,occlusion,low,mask,partial viewing,many small,Stimulus\all_stim\occlusion\partialviewing\manysmall\low\manysmall_partialViewing_low_bird1.png,mask_img/000000055694.png,experiment,p,p,1140.6135958000086
V3,10,29,Male,Right,247,Block 2,1.744308399996953,0.025,true,building,building,occlusion,control,mask,partial viewing,few large,Stimulus\all_stim\occlusion\partialviewing\fewlarge\control\fewlarge_partialViewing_control_building4.png,mask_img/000000004239.png,experiment,q,q,1143.3121369
V3,10,29,Male,Right,248,Block 2,1.1225640999909956,0.05,true,tree,tree,occlusion,control,mask,partial viewing,few large,Stimulus\all_stim\occlusion\partialviewing\fewlarge\control\fewlarge_partialViewing_control_tree9.png,mask_img/000000011701.png,experiment,r,r,1145.5580347000068
V3,10,29,Male,Right,249,Block 2,0.8468009000062011,0.05,true,bird,bird,occlusion,control,mask,partial viewing,many small,Stimulus\all_stim\occlusion\partialviewing\manysmall\control\manysmall_partialViewing_control_bird3.png,mask_img/000000034570.png,experiment,p,p,1147.3655319999962
V3,10,29,Male,Right,250,Block 2,2.4190921999979764,0.025,true,firehydrant,firehydrant,occlusion,high,mask,partial viewing,few large,Stimulus\all_stim\occlusion\partialviewing\fewlarge\high\fewlarge_partialViewing_high_firehydrant5.png,mask_img/000000018982.png,experiment,i,i,1150.901600199999
V3,10,29,Male,Right,251,Block 2,0.8194871000014246,0.05,true,firehydrant,firehydrant,occlusion,low,mask,partial viewing,few large,Stimulus\all_stim\occlusion\partialviewing\fewlarge\low\fewlarge_partialViewing_low_firehydrant1.png,mask_img/000000028304.png,experiment,i,i,1152.4694732000062
V3,10,29,Male,Right,252,Block 2,1.2729285000095842,0.1,true,bird,bird,occlusion,low,mask,partial viewing,few large,Stimulus\all_stim\occlusion\partialviewing\fewlarge\low\fewlarge_partialViewing_low_bird3.png,mask_img/000000024157.png,experiment,p,p,1154.6775561999966
V3,10,29,Male,Right,253,Block 2,1.0053467999969143,0.05,true,building,building,occlusion,high,mask,partial viewing,few large,Stimulus\all_stim\occlusion\partialviewing\fewlarge\high\fewlarge_partialViewing_high_building4.png,mask_img/000000014592.png,experiment,q,q,1156.4056470000069
V3,10,29,Male,Right,254,Block 2,0.7022276999923633,0.05,true,building,building,occlusion,low,mask,partial viewing,few large,Stimulus\all_stim\occlusion\partialviewing\fewlarge\low\fewlarge_partialViewing_low_building2.png,mask_img/000000024702.png,experiment,q,q,1157.8215541999962
V3,10,29,Male,Right,255,Block 2,1.8732752999931108,0.025,true,banana,banana,occlusion,control,mask,partial viewing,few large,Stimulus\all_stim\occlusion\partialviewing\fewlarge\control\fewlarge_partialViewing_control_banana8.png,mask_img/000000000690.png,experiment,w,w,1160.8616277999972
V3,10,29,Male,Right,256,Block 2,1.0804620999988401,0.025,true,tree,tree,occlusion,control,mask,partial viewing,few large,Stimulus\all_stim\occlusion\partialviewing\fewlarge\control\fewlarge_partialViewing_control_tree5.png,mask_img/000000010991.png,experiment,r,r,1162.6297620999976
V3,10,29,Male,Right,257,Block 2,1.803227300013532,0.025,true,bus,bus,occlusion,low,mask,partial viewing,many small,Stimulus\all_stim\occlusion\partialviewing\manysmall\low\manysmall_partialViewing_low_bus7.png,mask_img/000000058822.png,experiment,o,o,1165.5743597999972
V3,10,29,Male,Right,258,Block 2,1.3563868999917759,0.1,true,tree,tree,occlusion,low,mask,partial viewing,few large,Stimulus\all_stim\occlusion\partialviewing\fewlarge\low\fewlarge_partialViewing_low_tree10.png,mask_img/000000031454.png,experiment,r,r,1167.677565799997
V3,10,29,Male,Right,259,Block 2,1.1709368000010727,0.025,true,tree,tree,occlusion,low,mask,partial viewing,few large,Stimulus\all_stim\occlusion\partialviewing\fewlarge\low\fewlarge_partialViewing_low_tree7.png,mask_img/000000032906.png,experiment,r,r,1169.8537297000003
V3,10,29,Male,Right,260,Block 2,2.2481931999936933,0.1,true,firehydrant,firehydrant,occlusion,low,mask,partial viewing,many small,Stimulus\all_stim\occlusion\partialviewing\manysmall\low\manysmall_partialViewing_low_firehydrant4.png,mask_img/000000060610.png,experiment,i,i,1173.1415037999977
V3,10,29,Male,Right,261,Block 2,0.9336997999926098,0.1,true,firehydrant,firehydrant,occlusion,control,mask,partial viewing,few large,Stimulus\all_stim\occlusion\partialviewing\fewlarge\control\fewlarge_partialViewing_control_firehydrant4.png,mask_img/000000007952.png,experiment,i,i,1175.0298745000036
V3,10,29,Male,Right,262,Block 2,1.0913221999944653,0.1,true,person,person,occlusion,control,mask,partial viewing,many small,Stimulus\all_stim\occlusion\partialviewing\manysmall\control\manysmall_partialViewing_control_person4.png,mask_img/000000040042.png,experiment,e,e,1177.2295485000068
V3,10,29,Male,Right,263,Block 2,1.7925424999993993,0.05,false,cat,bird,occlusion,low,mask,partial viewing,few large,Stimulus\all_stim\occlusion\partialviewing\fewlarge\low\fewlarge_partialViewing_low_cat8.png,mask_img/000000028171.png,experiment,p,u,1180.1656731999974
V3,10,29,Male,Right,264,Block 2,1.115918800001964,0.025,true,tree,tree,occlusion,high,mask,partial viewing,few large,Stimulus\all_stim\occlusion\partialviewing\fewlarge\high\fewlarge_partialViewing_high_tree1.png,mask_img/000000021206.png,experiment,r,r,1182.2056325000012
V3,10,29,Male,Right,265,Block 2,0.6872640999936266,0.1,true,building,building,occlusion,control,mask,partial viewing,many small,Stimulus\all_stim\occlusion\partialviewing\manysmall\control\manysmall_partialViewing_control_building3.png,mask_img/000000035979.png,experiment,q,q,1184.0138819999993
V3,10,29,Male,Right,266,Block 2,1.0812460000015562,0.025,true,banana,banana,occlusion,control,mask,partial viewing,many small,Stimulus\all_stim\occlusion\partialviewing\manysmall\control\manysmall_partialViewing_control_banana9.png,mask_img/000000033955.png,experiment,w,w,1185.8137152999989
V3,10,29,Male,Right,267,Block 2,0.6461202999926172,0.1,true,building,building,occlusion,high,mask,partial viewing,many small,Stimulus\all_stim\occlusion\partialviewing\manysmall\high\manysmall_partialViewing_high_building3.png,mask_img/000000045655.png,experiment,q,q,1187.1605977
V3,10,29,Male,Right,268,Block 2,2.689915299997665,0.1,true,cat,cat,occlusion,high,mask,partial viewing,few large,Stimulus\all_stim\occlusion\partialviewing\fewlarge\high\fewlarge_partialViewing_high_cat9.png,mask_img/000000017858.png,experiment,u,u,1190.8542835999979
V3,10,29,Male,Right,269,Block 2,1.6506117999961134,0.1,true,cat,cat,occlusion,low,mask,partial viewing,many small,Stimulus\all_stim\occlusion\partialviewing\manysmall\low\manysmall_partialViewing_low_cat1.png,mask_img/000000059036.png,experiment,u,u,1193.4295083000034
V3,10,29,Male,Right,270,Block 2,1.517436499998439,0.05,false,bird,person,occlusion,high,mask,partial viewing,many small,Stimulus\all_stim\occlusion\partialviewing\manysmall\high\manysmall_partialViewing_high_bird4.png,mask_img/000000044136.png,experiment,e,p,1195.8377046000096
V3,10,29,Male,Right,271,Block 2,0.7621002999949269,0.1,true,person,person,occlusion,control,mask,partial viewing,few large,Stimulus\all_stim\occlusion\partialviewing\fewlarge\control\fewlarge_partialViewing_control_person1.png,mask_img/000000008341.png,experiment,e,e,1197.4056635000015
V3,10,29,Male,Right,272,Block 2,1.1998082000063732,0.05,true,building,building,occlusion,high,mask,partial viewing,many small,Stimulus\all_stim\occlusion\partialviewing\manysmall\high\manysmall_partialViewing_high_building4.png,mask_img/000000046025.png,experiment,q,q,1199.6618178000062
V3,10,29,Male,Right,273,Block 2,1.7195606999885058,0.025,false,banana,bird,occlusion,high,mask,partial viewing,few large,Stimulus\all_stim\occlusion\partialviewing\fewlarge\high\fewlarge_partialViewing_high_banana10.png,mask_img/000000012178.png,experiment,p,w,1202.5576019
V3,10,29,Male,Right,274,Block 2,0.6551119999930961,0.1,true,building,building,occlusion,low,mask,partial viewing,few large,Stimulus\all_stim\occlusion\partialviewing\fewlarge\low\fewlarge_partialViewing_low_building7.png,mask_img/000000025192.png,experiment,q,q,1204.2522858000011
V3,10,29,Male,Right,275,Block 2,0.8754638999962481,0.1,false,banana,bird,occlusion,high,mask,partial viewing,many small,Stimulus\all_stim\occlusion\partialviewing\manysmall\high\manysmall_partialViewing_high_banana8.png,mask_img/000000043291.png,experiment,p,w,1206.0134945000027
V3,10,29,Male,Right,276,Block 2,0.9316870999900857,0.025,true,bird,bird,occlusion,high,mask,partial viewing,many small,Stimulus\all_stim\occlusion\partialviewing\manysmall\high\manysmall_partialViewing_high_bird7.png,mask_img/000000044580.png,experiment,p,p,1207.853594100001
V3,10,29,Male,Right,277,Block 2,2.9077085000026273,0.1,false,cat,firehydrant,occlusion,control,mask,partial viewing,many small,Stimulus\all_stim\occlusion\partialviewing\manysmall\control\manysmall_partialViewing_control_cat1.png,mask_img/000000038177.png,experiment,i,u,1211.8781256000075
V3,10,29,Male,Right,278,Block 2,2.0761144000134664,0.025,false,bus,bird,occlusion,low,mask,partial viewing,few large,Stimulus\all_stim\occlusion\partialviewing\fewlarge\low\fewlarge_partialViewing_low_bus6.png,mask_img/000000026503.png,experiment,p,o,1214.6934757999989
V3,10,29,Male,Right,279,Block 2,1.0285550999979023,0.05,true,person,person,occlusion,control,mask,partial viewing,many small,Stimulus\all_stim\occlusion\partialviewing\manysmall\control\manysmall_partialViewing_control_person5.png,mask_img/000000040275.png,experiment,e,e,1216.549713100001
V3,10,29,Male,Right,280,Block 2,2.8220183000084944,0.025,false,firehydrant,person,occlusion,high,mask,partial viewing,many small,Stimulus\all_stim\occlusion\partialviewing\manysmall\high\manysmall_partialViewing_high_firehydrant3.png,mask_img/000000050276.png,experiment,e,i,1220.4778940000106
V3,10,29,Male,Right,281,Block 2,0.9507229999871925,0.1,true,banana,banana,occlusion,low,mask,partial viewing,few large,Stimulus\all_stim\occlusion\partialviewing\fewlarge\low\fewlarge_partialViewing_low_banana1.png,mask_img/000000022545.png,experiment,w,w,1222.325765600006
V3,10,29,Male,Right,282,Block 2,1.3805795999942347,0.1,true,bus,bus,occlusion,control,mask,partial viewing,few large,Stimulus\all_stim\occlusion\partialviewing\fewlarge\control\fewlarge_partialViewing_control_bus4.png,mask_img/000000005574.png,experiment,o,o,1224.4775081999978
V3,10,29,Male,Right,283,Block 2,1.2259581000107573,0.1,true,banana,banana,occlusion,control,mask,partial viewing,few large,Stimulus\all_stim\occlusion\partialviewing\fewlarge\control\fewlarge_partialViewing_control_banana9.png,mask_img/000000000731.png,experiment,w,w,1226.5976691000105
V3,10,29,Male,Right,284,Block 2,1.439801799991983,0.05,true,bird,bird,occlusion,high,mask,partial viewing,few large,Stimulus\all_stim\occlusion\partialviewing\fewlarge\high\fewlarge_partialViewing_high_bird6.png,mask_img/000000013944.png,experiment,p,p,1228.8537439000065
V3,10,29,Male,Right,285,Block 2,1.2884948999999324,0.025,true,tree,tree,occlusion,high,mask,partial viewing,few large,Stimulus\all_stim\occlusion\partialviewing\fewlarge\high\fewlarge_partialViewing_high_tree9.png,mask_img/000000022440.png,experiment,r,r,1230.949867800009
V3,10,29,Male,Right,286,Block 2,1.302786999993259,0.1,true,bus,bus,occlusion,high,mask,partial viewing,many small,Stimulus\all_stim\occlusion\partialviewing\manysmall\high\manysmall_partialViewing_high_bus6.png,mask_img/000000047407.png,experiment,o,o,1232.9417743000085
V3,10,29,Male,Right,287,Block 2,2.4159746000077575,0.1,false,firehydrant,bus,occlusion,high,mask,partial viewing,few large,Stimulus\all_stim\occlusion\partialviewing\fewlarge\high\fewlarge_partialViewing_high_firehydrant4.png,mask_img/000000018882.png,experiment,o,i,1236.062262899999
V3,10,29,Male,Right,288,Block 2,1.8845758000097703,0.05,false,person,tree,occlusion,control,mask,partial viewing,many small,Stimulus\all_stim\occlusion\partialviewing\manysmall\control\manysmall_partialViewing_control_person3.png,mask_img/000000040008.png,experiment,r,e,1267.3419376000093
V3,10,29,Male,Right,289,Block 3,1.4904566000041086,0.05,true,bird,bird,occlusion,control,mask,partial viewing,few large,Stimulus\all_stim\occlusion\partialviewing\fewlarge\control\fewlarge_partialViewing_control_bird6.png,mask_img/000000002337.png,experiment,p,p,1269.6054798999976
V3,10,29,Male,Right,290,Block 3,1.02587240000139,0.025,true,banana,banana,occlusion,control,mask,partial viewing,many small,Stimulus\all_stim\occlusion\partialviewing\manysmall\control\manysmall_partialViewing_control_banana10.png,mask_img/000000033074.png,experiment,w,w,1271.7337062000006
V3,10,29,Male,Right,291,Block 3,1.2565022999915527,0.1,true,tree,tree,occlusion,low,mask,partial viewing,few large,Stimulus\all_stim\occlusion\partialviewing\fewlarge\low\fewlarge_partialViewing_low_tree4.png,mask_img/000000032364.png,experiment,r,r,1274.1096091000072
V3,10,29,Male,Right,292,Block 3,1.0162885000027018,0.025,true,person,person,occlusion,high,mask,partial viewing,few large,Stimulus\all_stim\occlusion\partialviewing\fewlarge\high\fewlarge_partialViewing_high_person6.png,mask_img/000000020392.png,experiment,e,e,1276.229610800001
V3,10,29,Male,Right,293,Block 3,2.374092899990501,0.025,true,firehydrant,firehydrant,occlusion,low,mask,partial viewing,many small,Stimulus\all_stim\occlusion\partialviewing\manysmall\low\manysmall_partialViewing_low_firehydrant5.png,mask_img/000000060623.png,experiment,i,i,1279.7735547000048
V3,10,29,Male,Right,294,Block 3,1.2625676000025123,0.025,false,banana,bird,occlusion,low,mask,partial viewing,many small,Stimulus\all_stim\occlusion\partialviewing\manysmall\low\manysmall_partialViewing_low_banana8.png,mask_img/000000055630.png,experiment,p,w,1281.8136304000072
V3,10,29,Male,Right,295,Block 3,1.1345481000025757,0.1,true,firehydrant,firehydrant,occlusion,high,mask,partial viewing,few large,Stimulus\all_stim\occlusion\partialviewing\fewlarge\high\fewlarge_partialViewing_high_firehydrant3.png,mask_img/000000018864.png,experiment,i,i,1283.9977095000067
V3,10,29,Male,Right,296,Block 3,1.773566000003484,0.1,true,cat,cat,occlusion,low,mask,partial viewing,few large,Stimulus\all_stim\occlusion\partialviewing\fewlarge\low\fewlarge_partialViewing_low_cat2.png,mask_img/000000027371.png,experiment,u,u,1286.8137438999984
V3,10,29,Male,Right,297,Block 3,1.3058269999892218,0.025,true,person,person,occlusion,control,mask,partial viewing,many small,Stimulus\all_stim\occlusion\partialviewing\manysmall\control\manysmall_partialViewing_control_person1.png,mask_img/000000039656.png,experiment,e,e,1289.2217749999982
V3,10,29,Male,Right,298,Block 3,1.3624061000009533,0.1,true,bird,bird,occlusion,high,mask,partial viewing,many small,Stimulus\all_stim\occlusion\partialviewing\manysmall\high\manysmall_partialViewing_high_bird7.png,mask_img/000000044580.png,experiment,p,p,1291.325671300001
V3,10,29,Male,Right,299,Block 3,1.589903600004618,0.05,true,bus,bus,occlusion,control,mask,partial viewing,few large,Stimulus\all_stim\occlusion\partialviewing\fewlarge\control\fewlarge_partialViewing_control_bus8.png,mask_img/000000006153.png,experiment,o,o,1293.8377545999974
V3,10,29,Male,Right,300,Block 3,1.0791845000057947,0.025,true,person,person,occlusion,control,mask,partial viewing,few large,Stimulus\all_stim\occlusion\partialviewing\fewlarge\control\fewlarge_partialViewing_control_person9.png,mask_img/000000009809.png,experiment,e,e,1296.0616535000008
V3,10,29,Male,Right,301,Block 3,1.599121199993533,0.1,true,tree,tree,occlusion,high,mask,partial viewing,many small,Stimulus\all_stim\occlusion\partialviewing\manysmall\high\manysmall_partialViewing_high_tree8.png,mask_img/000000054334.png,experiment,r,r,1298.749629500002
V3,10,29,Male,Right,302,Block 3,1.6606371000088984,0.05,true,tree,tree,occlusion,low,mask,partial viewing,many small,Stimulus\all_stim\occlusion\partialviewing\manysmall\low\manysmall_partialViewing_low_tree6.png,mask_img/000000063715.png,experiment,r,r,1301.389694700003
V3,10,29,Male,Right,303,Block 3,2.1300049999990733,0.05,false,cat,bird,occlusion,high,mask,partial viewing,many small,Stimulus\all_stim\occlusion\partialviewing\manysmall\high\manysmall_partialViewing_high_cat5.png,mask_img/000000049428.png,experiment,p,u,1304.3735651000025
V3,10,29,Male,Right,304,Block 3,1.3250016999954823,0.1,true,person,person,occlusion,low,mask,partial viewing,many small,Stimulus\all_stim\occlusion\partialviewing\manysmall\low\manysmall_partialViewing_low_person1.png,mask_img/000000061780.png,experiment,e,e,1306.381769700005
