Version,pt_num,Age,Gender,Handedness,trial_nbr,block_number,rt,soa,acc,category,choiced_category,manipulation,difficulty,mask,type_occl,size_occl,filename,mask_filename,task,pressed_key,correct_key,Experiment Duration
V3,12,18,Male,Left,1,Training,5.376337000052445,0.1,false,cat,firehydrant,occlusion,high,mask,partial viewing,many small,Training_Stimulus\manysmall_partialViewing_high_cat432.png,mask_img/000000005862.png,training,o,u,101.27857029996812
V3,12,18,Male,Left,2,Training,2.760901700006798,0.025,false,tree,bus,occlusion,high,mask,partial viewing,many small,Training_Stimulus\manysmall_partialViewing_high_tree9.png,mask_img/000000006263.png,training,p,q,105.22945309994975
V3,12,18,Male,Left,3,Training,1.8470289000542834,0.1,false,cat,building,occlusion,control,mask,partial viewing,many small,Training_Stimulus\manysmall_partialViewing_control_cat432.png,mask_img/000000005105.png,training,i,u,108.21408509998582
V3,12,18,Male,Left,4,Training,1.1963523000013083,0.05,true,cat,cat,occlusion,control,mask,partial viewing,many small,Training_Stimulus\manysmall_partialViewing_control_cat432.png,mask_img/000000005105.png,training,u,u,110.71404649998294
V3,12,18,Male,Left,5,Training,2.685778000042774,0.1,false,cat,banana,occlusion,low,mask,partial viewing,few large,Training_Stimulus\fewlarge_partialViewing_low_cat432.png,mask_img/000000003084.png,training,e,u,114.87016999995103
V3,12,18,Male,Left,6,Training,1.5088949999772012,0.1,true,banana,banana,occlusion,control,mask,partial viewing,many small,Training_Stimulus\manysmall_partialViewing_control_banana454.png,mask_img/000000004239.png,training,e,e,117.85426239995286
V3,12,18,Male,Left,7,Training,1.6779911000048742,0.025,true,bus,bus,occlusion,control,mask,partial viewing,few large,Training_Stimulus\fewlarge_partialViewing_control_bus180.png,mask_img/000000000394.png,training,p,p,120.69645309995394
V3,12,18,Male,Left,8,Training,2.6873565000132658,0.05,true,building,building,occlusion,low,mask,partial viewing,many small,Training_Stimulus\manysmall_partialViewing_low_building24.png,mask_img/000000006489.png,training,i,i,124.7624705999624
V3,12,18,Male,Left,9,Training,1.717601399985142,0.025,true,banana,banana,occlusion,low,mask,partial viewing,many small,Training_Stimulus\manysmall_partialViewing_low_banana454.png,mask_img/000000006437.png,training,e,e,128.04329249996226
V3,12,18,Male,Left,10,Training,1.726850499981083,0.05,true,firehydrant,firehydrant,occlusion,low,mask,partial viewing,many small,Training_Stimulus\manysmall_partialViewing_low_firehydrant90.png,mask_img/000000006870.png,training,o,o,131.18408320000162
V3,12,18,Male,Left,11,Training,1.594933599990327,0.1,true,building,building,occlusion,low,mask,partial viewing,few large,Training_Stimulus\fewlarge_partialViewing_low_building24.png,mask_img/000000002822.png,training,i,i,134.153100800002
V3,12,18,Male,Left,12,Training,1.740756799990777,0.025,false,cat,tree,occlusion,low,mask,partial viewing,few large,Training_Stimulus\fewlarge_partialViewing_low_cat432.png,mask_img/000000003084.png,training,q,u,137.27872179995757
V3,12,18,Male,Left,13,Training,1.1546771000139415,0.025,false,bird,tree,occlusion,high,mask,partial viewing,many small,Training_Stimulus\manysmall_partialViewing_high_bird4.png,mask_img/000000005418.png,training,q,r,139.88881139998557
V3,12,18,Male,Left,14,Training,1.8762711000163108,0.1,false,cat,building,occlusion,control,mask,partial viewing,few large,Training_Stimulus\fewlarge_partialViewing_control_cat432.png,mask_img/000000000438.png,training,i,u,143.21669319999637
V3,12,18,Male,Left,15,Training,1.2439403000171296,0.05,false,bird,cat,occlusion,low,mask,partial viewing,many small,Training_Stimulus\manysmall_partialViewing_low_bird4.png,mask_img/000000006481.png,training,u,r,145.84183599997777
V3,12,18,Male,Left,16,Training,1.580454200040549,0.1,true,firehydrant,firehydrant,occlusion,control,mask,partial viewing,many small,Training_Stimulus\manysmall_partialViewing_control_firehydrant90.png,mask_img/000000005131.png,training,o,o,149.02924609999172
V3,12,18,Male,Left,17,Training,2.0249909999547526,0.025,false,bus,building,occlusion,low,mask,partial viewing,many small,Training_Stimulus\manysmall_partialViewing_low_bus180.png,mask_img/000000006709.png,training,i,p,152.5864779999829
V3,12,18,Male,Left,18,Training,1.1552595000248402,0.025,true,tree,tree,occlusion,control,mask,partial viewing,many small,Training_Stimulus\manysmall_partialViewing_control_tree9.png,mask_img/000000005282.png,training,q,q,154.9927628999576
V3,12,18,Male,Left,19,Training,2.4069354999810457,0.1,true,building,building,occlusion,low,mask,partial viewing,many small,Training_Stimulus\manysmall_partialViewing_low_building24.png,mask_img/000000006489.png,training,i,i,158.90266179997707
V3,12,18,Male,Left,20,Training,1.6274199999752454,0.025,true,banana,banana,occlusion,control,mask,partial viewing,many small,Training_Stimulus\manysmall_partialViewing_control_banana454.png,mask_img/000000004239.png,training,e,e,162.05652589997044
V3,12,18,Male,Left,21,Training,1.326327399990987,0.05,true,person,person,occlusion,high,mask,partial viewing,few large,Training_Stimulus\fewlarge_partialViewing_high_person189.png,mask_img/000000001997.png,training,w,w,164.88433779997285
V3,12,18,Male,Left,22,Training,2.010708899993915,0.1,true,firehydrant,firehydrant,occlusion,control,mask,partial viewing,few large,Training_Stimulus\fewlarge_partialViewing_control_firehydrant90.png,mask_img/000000000459.png,training,o,o,168.4641955999541
V3,12,18,Male,Left,23,Training,1.1628178999526426,0.025,true,building,building,occlusion,low,mask,partial viewing,many small,Training_Stimulus\manysmall_partialViewing_low_building24.png,mask_img/000000006489.png,training,i,i,170.8859598999843
V3,12,18,Male,Left,24,Training,1.222736299969256,0.025,true,tree,tree,occlusion,control,mask,partial viewing,few large,Training_Stimulus\fewlarge_partialViewing_control_tree9.png,mask_img/000000000626.png,training,q,q,173.33926099998644
V3,12,18,Male,Left,25,Training,1.4047712999745272,0.025,true,building,building,occlusion,high,mask,partial viewing,many small,Training_Stimulus\manysmall_partialViewing_high_building24.png,mask_img/000000005574.png,training,i,i,176.3078977999976
V3,12,18,Male,Left,1,Block 1,1.7963981000357307,0.05,true,banana,banana,occlusion,control,mask,partial viewing,few large,Stimulus\all_stim\occlusion\partialviewing\fewlarge\control\fewlarge_partialViewing_control_banana8.png,mask_img/000000000690.png,experiment,e,e,189.1737007999909
V3,12,18,Male,Left,2,Block 1,1.7909664000035264,0.025,true,building,building,occlusion,control,mask,partial viewing,few large,Stimulus\all_stim\occlusion\partialviewing\fewlarge\control\fewlarge_partialViewing_control_building7.png,mask_img/000000004936.png,experiment,i,i,192.06976929999655
V3,12,18,Male,Left,3,Block 1,1.1741361999884248,0.025,true,building,building,occlusion,control,mask,partial viewing,many small,Stimulus\all_stim\occlusion\partialviewing\manysmall\control\manysmall_partialViewing_control_building8.png,mask_img/000000036091.png,experiment,i,i,194.25338379997993
V3,12,18,Male,Left,4,Block 1,1.4916874999762513,0.1,true,banana,banana,occlusion,control,mask,partial viewing,few large,Stimulus\all_stim\occlusion\partialviewing\fewlarge\control\fewlarge_partialViewing_control_banana6.png,mask_img/000000000595.png,experiment,e,e,197.00554359995294
V3,12,18,Male,Left,5,Block 1,1.3087946999585256,0.1,true,building,building,occlusion,control,mask,partial viewing,few large,Stimulus\all_stim\occlusion\partialviewing\fewlarge\control\fewlarge_partialViewing_control_building6.png,mask_img/000000004739.png,experiment,i,i,199.3653903999948
V3,12,18,Male,Left,6,Block 1,1.3355715000070632,0.1,true,cat,cat,occlusion,low,mask,partial viewing,many small,Stimulus\all_stim\occlusion\partialviewing\manysmall\low\manysmall_partialViewing_low_cat7.png,mask_img/000000060158.png,experiment,u,u,201.6213182999636
V3,12,18,Male,Left,7,Block 1,1.0731742999632843,0.05,true,tree,tree,occlusion,control,mask,partial viewing,few large,Stimulus\all_stim\occlusion\partialviewing\fewlarge\control\fewlarge_partialViewing_control_tree2.png,mask_img/000000010560.png,experiment,q,q,203.54141700000037
V3,12,18,Male,Left,8,Block 1,1.3568865999695845,0.05,false,cat,building,occlusion,low,mask,partial viewing,few large,Stimulus\all_stim\occlusion\partialviewing\fewlarge\low\fewlarge_partialViewing_low_cat5.png,mask_img/000000027704.png,experiment,i,u,205.78107909997925
V3,12,18,Male,Left,9,Block 1,1.1762092999997549,0.05,true,building,building,occlusion,control,mask,partial viewing,few large,Stimulus\all_stim\occlusion\partialviewing\fewlarge\control\fewlarge_partialViewing_control_building8.png,mask_img/000000005105.png,experiment,i,i,207.82176769996295
V3,12,18,Male,Left,10,Block 1,1.7486735999700613,0.1,true,bird,bird,occlusion,control,mask,partial viewing,many small,Stimulus\all_stim\occlusion\partialviewing\manysmall\control\manysmall_partialViewing_control_bird1.png,mask_img/000000034113.png,experiment,r,r,210.41342149995035
V3,12,18,Male,Left,11,Block 1,1.2460082999896258,0.025,true,bus,bus,occlusion,control,mask,partial viewing,few large,Stimulus\all_stim\occlusion\partialviewing\fewlarge\control\fewlarge_partialViewing_control_bus9.png,mask_img/000000006263.png,experiment,p,p,212.5341282999725
V3,12,18,Male,Left,12,Block 1,1.8496318999677896,0.1,true,tree,tree,occlusion,high,mask,partial viewing,many small,Stimulus\all_stim\occlusion\partialviewing\manysmall\high\manysmall_partialViewing_high_tree7.png,mask_img/000000053635.png,experiment,q,q,215.33348689996637
V3,12,18,Male,Left,13,Block 1,1.3632481999811716,0.05,false,firehydrant,tree,occlusion,high,mask,partial viewing,many small,Stimulus\all_stim\occlusion\partialviewing\manysmall\high\manysmall_partialViewing_high_firehydrant8.png,mask_img/000000050794.png,experiment,q,o,217.93403039994882
V3,12,18,Male,Left,14,Block 1,0.6063283000257798,0.025,true,tree,tree,occlusion,control,mask,partial viewing,many small,Stimulus\all_stim\occlusion\partialviewing\manysmall\control\manysmall_partialViewing_control_tree8.png,mask_img/000000041577.png,experiment,q,q,219.4855164999608
V3,12,18,Male,Left,15,Block 1,1.961916999949608,0.05,true,banana,banana,occlusion,high,mask,partial viewing,many small,Stimulus\all_stim\occlusion\partialviewing\manysmall\high\manysmall_partialViewing_high_banana8.png,mask_img/000000043291.png,experiment,e,e,222.3177942999755
V3,12,18,Male,Left,16,Block 1,0.9201759000425227,0.1,true,bird,bird,occlusion,low,mask,partial viewing,few large,Stimulus\all_stim\occlusion\partialviewing\fewlarge\low\fewlarge_partialViewing_low_bird2.png,mask_img/000000024125.png,experiment,r,r,224.10166329995263
V3,12,18,Male,Left,17,Block 1,0.8719605000223964,0.05,true,bird,bird,occlusion,control,mask,partial viewing,few large,Stimulus\all_stim\occlusion\partialviewing\fewlarge\control\fewlarge_partialViewing_control_bird2.png,mask_img/000000001647.png,experiment,r,r,225.73364579997724
V3,12,18,Male,Left,18,Block 1,1.0186641000327654,0.025,true,building,building,occlusion,control,mask,partial viewing,many small,Stimulus\all_stim\occlusion\partialviewing\manysmall\control\manysmall_partialViewing_control_building3.png,mask_img/000000035979.png,experiment,i,i,227.5495289999526
V3,12,18,Male,Left,19,Block 1,0.9826542000519112,0.025,false,bus,building,occlusion,high,mask,partial viewing,many small,Stimulus\all_stim\occlusion\partialviewing\manysmall\high\manysmall_partialViewing_high_bus6.png,mask_img/000000047407.png,experiment,i,p,229.64522730000317
V3,12,18,Male,Left,20,Block 1,1.0641867999802344,0.05,true,cat,cat,occlusion,control,mask,partial viewing,few large,Stimulus\all_stim\occlusion\partialviewing\fewlarge\control\fewlarge_partialViewing_control_cat5.png,mask_img/000000006870.png,experiment,u,u,231.8776547999587
V3,12,18,Male,Left,21,Block 1,0.9690751999733038,0.1,true,building,building,occlusion,low,mask,partial viewing,many small,Stimulus\all_stim\occlusion\partialviewing\manysmall\low\manysmall_partialViewing_low_building10.png,mask_img/000000057068.png,experiment,i,i,233.63017749995925
V3,12,18,Male,Left,22,Block 1,1.1955918000312522,0.025,true,firehydrant,firehydrant,occlusion,low,mask,partial viewing,few large,Stimulus\all_stim\occlusion\partialviewing\fewlarge\low\fewlarge_partialViewing_low_firehydrant7.png,mask_img/000000028885.png,experiment,o,o,235.62158499995712
V3,12,18,Male,Left,23,Block 1,1.212127699982375,0.025,true,bus,bus,occlusion,low,mask,partial viewing,many small,Stimulus\all_stim\occlusion\partialviewing\manysmall\low\manysmall_partialViewing_low_bus10.png,mask_img/000000058595.png,experiment,p,p,237.81384809996234
V3,12,18,Male,Left,24,Block 1,1.911112800007686,0.05,true,banana,banana,occlusion,control,mask,partial viewing,few large,Stimulus\all_stim\occlusion\partialviewing\fewlarge\control\fewlarge_partialViewing_control_banana9.png,mask_img/000000000731.png,experiment,e,e,240.63792109995848
V3,12,18,Male,Left,25,Block 1,1.3502027000067756,0.1,true,person,person,occlusion,low,mask,partial viewing,many small,Stimulus\all_stim\occlusion\partialviewing\manysmall\low\manysmall_partialViewing_low_person8.png,mask_img/000000062420.png,experiment,w,w,242.7495873000007
V3,12,18,Male,Left,26,Block 1,1.066594600037206,0.1,true,bird,bird,occlusion,low,mask,partial viewing,many small,Stimulus\all_stim\occlusion\partialviewing\manysmall\low\manysmall_partialViewing_low_bird10.png,mask_img/000000055733.png,experiment,r,r,244.94931019999785
V3,12,18,Male,Left,27,Block 1,1.283450199989602,0.05,true,bus,bus,occlusion,low,mask,partial viewing,few large,Stimulus\all_stim\occlusion\partialviewing\fewlarge\low\fewlarge_partialViewing_low_bus2.png,mask_img/000000025858.png,experiment,p,p,247.14151129999664
V3,12,18,Male,Left,28,Block 1,0.767548700037878,0.1,true,bus,bus,occlusion,control,mask,partial viewing,few large,Stimulus\all_stim\occlusion\partialviewing\fewlarge\control\fewlarge_partialViewing_control_bus7.png,mask_img/000000006146.png,experiment,p,p,248.7655447999714
V3,12,18,Male,Left,29,Block 1,0.8808561000041664,0.1,true,tree,tree,occlusion,control,mask,partial viewing,many small,Stimulus\all_stim\occlusion\partialviewing\manysmall\control\manysmall_partialViewing_control_tree7.png,mask_img/000000041434.png,experiment,q,q,250.39728119998472
V3,12,18,Male,Left,30,Block 1,1.2599471000139602,0.05,true,firehydrant,firehydrant,occlusion,high,mask,partial viewing,many small,Stimulus\all_stim\occlusion\partialviewing\manysmall\high\manysmall_partialViewing_high_firehydrant4.png,mask_img/000000050412.png,experiment,o,o,252.67761439998867
V3,12,18,Male,Left,31,Block 1,1.3348047999897972,0.1,false,cat,bird,occlusion,low,mask,partial viewing,few large,Stimulus\all_stim\occlusion\partialviewing\fewlarge\low\fewlarge_partialViewing_low_cat3.png,mask_img/000000027556.png,experiment,r,u,255.0936989999609
V3,12,18,Male,Left,32,Block 1,0.9608284999849275,0.1,true,person,person,occlusion,low,mask,partial viewing,few large,Stimulus\all_stim\occlusion\partialviewing\fewlarge\low\fewlarge_partialViewing_low_person8.png,mask_img/000000030611.png,experiment,w,w,257.2055166999926
V3,12,18,Male,Left,33,Block 1,1.4119258999708109,0.05,false,building,firehydrant,occlusion,low,mask,partial viewing,few large,Stimulus\all_stim\occlusion\partialviewing\fewlarge\low\fewlarge_partialViewing_low_building5.png,mask_img/000000025034.png,experiment,o,i,259.6856104999897
V3,12,18,Male,Left,34,Block 1,1.8484792999806814,0.1,true,cat,cat,occlusion,control,mask,partial viewing,many small,Stimulus\all_stim\occlusion\partialviewing\manysmall\control\manysmall_partialViewing_control_cat2.png,mask_img/000000038375.png,experiment,u,u,262.60578839998925
V3,12,18,Male,Left,35,Block 1,1.1656425999826752,0.05,true,person,person,occlusion,low,mask,partial viewing,few large,Stimulus\all_stim\occlusion\partialviewing\fewlarge\low\fewlarge_partialViewing_low_person1.png,mask_img/000000029090.png,experiment,w,w,264.9576076999656
V3,12,18,Male,Left,36,Block 1,1.005263599974569,0.05,true,bus,bus,occlusion,high,mask,partial viewing,few large,Stimulus\all_stim\occlusion\partialviewing\fewlarge\high\fewlarge_partialViewing_high_bus3.png,mask_img/000000015908.png,experiment,p,p,266.94982819998404
V3,12,18,Male,Left,37,Block 1,1.709451699978672,0.025,false,person,tree,occlusion,high,mask,partial viewing,few large,Stimulus\all_stim\occlusion\partialviewing\fewlarge\high\fewlarge_partialViewing_high_person2.png,mask_img/000000019932.png,experiment,q,w,269.6137357999687
V3,12,18,Male,Left,38,Block 1,1.061126599961426,0.1,true,firehydrant,firehydrant,occlusion,control,mask,partial viewing,many small,Stimulus\all_stim\occlusion\partialviewing\manysmall\control\manysmall_partialViewing_control_firehydrant1.png,mask_img/000000039012.png,experiment,o,o,271.5095223999815
V3,12,18,Male,Left,39,Block 1,0.8837175999651663,0.05,true,cat,cat,occlusion,high,mask,partial viewing,few large,Stimulus\all_stim\occlusion\partialviewing\fewlarge\high\fewlarge_partialViewing_high_cat6.png,mask_img/000000017476.png,experiment,u,u,273.44575499999337
V3,12,18,Male,Left,40,Block 1,0.6143240000237711,0.1,true,cat,cat,occlusion,low,mask,partial viewing,few large,Stimulus\all_stim\occlusion\partialviewing\fewlarge\low\fewlarge_partialViewing_low_cat7.png,mask_img/000000027890.png,experiment,u,u,274.78829629998654
V3,12,18,Male,Left,41,Block 1,0.8078764000092633,0.1,true,firehydrant,firehydrant,occlusion,low,mask,partial viewing,few large,Stimulus\all_stim\occlusion\partialviewing\fewlarge\low\fewlarge_partialViewing_low_firehydrant5.png,mask_img/000000028698.png,experiment,o,o,276.5092949999962
V3,12,18,Male,Left,42,Block 1,0.7201638999977149,0.025,true,person,person,occlusion,control,mask,partial viewing,many small,Stimulus\all_stim\occlusion\partialviewing\manysmall\control\manysmall_partialViewing_control_person2.png,mask_img/000000039971.png,experiment,w,w,278.2456370999571
V3,12,18,Male,Left,43,Block 1,0.6289052999927662,0.025,true,firehydrant,firehydrant,occlusion,control,mask,partial viewing,few large,Stimulus\all_stim\occlusion\partialviewing\fewlarge\control\fewlarge_partialViewing_control_firehydrant9.png,mask_img/000000008329.png,experiment,o,o,279.92280909995316
V3,12,18,Male,Left,44,Block 1,0.9209888000041246,0.025,true,building,building,occlusion,low,mask,partial viewing,many small,Stimulus\all_stim\occlusion\partialviewing\manysmall\low\manysmall_partialViewing_low_building7.png,mask_img/000000058021.png,experiment,i,i,281.8855137999635
V3,12,18,Male,Left,45,Block 1,1.6971768999937922,0.025,false,bird,cat,occlusion,high,mask,partial viewing,many small,Stimulus\all_stim\occlusion\partialviewing\manysmall\high\manysmall_partialViewing_high_bird6.png,mask_img/000000044523.png,experiment,u,r,284.5820801999653
V3,12,18,Male,Left,46,Block 1,1.0905591000337154,0.025,true,building,building,occlusion,high,mask,partial viewing,many small,Stimulus\all_stim\occlusion\partialviewing\manysmall\high\manysmall_partialViewing_high_building6.png,mask_img/000000046155.png,experiment,i,i,286.34958229999756
V3,12,18,Male,Left,47,Block 1,0.7483674999675713,0.025,true,bus,bus,occlusion,high,mask,partial viewing,few large,Stimulus\all_stim\occlusion\partialviewing\fewlarge\high\fewlarge_partialViewing_high_bus5.png,mask_img/000000015986.png,experiment,p,p,288.13335389998974
V3,12,18,Male,Left,48,Block 1,1.3571529999608174,0.05,true,bus,bus,occlusion,high,mask,partial viewing,many small,Stimulus\all_stim\occlusion\partialviewing\manysmall\high\manysmall_partialViewing_high_bus8.png,mask_img/000000048169.png,experiment,p,p,290.28569839999545
V3,12,18,Male,Left,49,Block 1,0.630244700005278,0.05,false,building,bus,occlusion,control,mask,partial viewing,few large,Stimulus\all_stim\occlusion\partialviewing\fewlarge\control\fewlarge_partialViewing_control_building3.png,mask_img/000000003694.png,experiment,p,i,291.82941539998865
V3,12,18,Male,Left,50,Block 1,4.802444699977059,0.05,false,building,bus,occlusion,high,mask,partial viewing,few large,Stimulus\all_stim\occlusion\partialviewing\fewlarge\high\fewlarge_partialViewing_high_building3.png,mask_img/000000014567.png,experiment,p,i,297.5820635999553
V3,12,18,Male,Left,51,Block 1,0.8762023000163026,0.025,true,tree,tree,occlusion,control,mask,partial viewing,many small,Stimulus\all_stim\occlusion\partialviewing\manysmall\control\manysmall_partialViewing_control_tree10.png,mask_img/000000040948.png,experiment,q,q,299.2854457999929
V3,12,18,Male,Left,52,Block 1,1.3308773000026122,0.05,true,tree,tree,occlusion,high,mask,partial viewing,few large,Stimulus\all_stim\occlusion\partialviewing\fewlarge\high\fewlarge_partialViewing_high_tree6.png,mask_img/000000022142.png,experiment,q,q,301.74958639999386
V3,12,18,Male,Left,53,Block 1,1.2093145999824628,0.1,true,building,building,occlusion,low,mask,partial viewing,many small,Stimulus\all_stim\occlusion\partialviewing\manysmall\low\manysmall_partialViewing_low_building5.png,mask_img/000000057930.png,experiment,i,i,303.8137946999632
V3,12,18,Male,Left,54,Block 1,0.7891233999980614,0.05,true,person,person,occlusion,control,mask,partial viewing,many small,Stimulus\all_stim\occlusion\partialviewing\manysmall\control\manysmall_partialViewing_control_person4.png,mask_img/000000040042.png,experiment,w,w,305.5335699999705
V3,12,18,Male,Left,55,Block 1,0.9879180999705568,0.05,true,cat,cat,occlusion,control,mask,partial viewing,few large,Stimulus\all_stim\occlusion\partialviewing\fewlarge\control\fewlarge_partialViewing_control_cat6.png,mask_img/000000007179.png,experiment,u,u,307.3676728999708
V3,12,18,Male,Left,56,Block 1,1.103244600002654,0.1,true,bird,bird,occlusion,low,mask,partial viewing,many small,Stimulus\all_stim\occlusion\partialviewing\manysmall\low\manysmall_partialViewing_low_bird9.png,mask_img/000000056641.png,experiment,r,r,309.36554549995344
V3,12,18,Male,Left,57,Block 1,1.1853784999693744,0.1,true,building,building,occlusion,low,mask,partial viewing,many small,Stimulus\all_stim\occlusion\partialviewing\manysmall\low\manysmall_partialViewing_low_building1.png,mask_img/000000056716.png,experiment,i,i,311.485466299986
V3,12,18,Male,Left,58,Block 1,1.2262515000184067,0.05,true,tree,tree,occlusion,high,mask,partial viewing,many small,Stimulus\all_stim\occlusion\partialviewing\manysmall\high\manysmall_partialViewing_high_tree3.png,mask_img/000000052936.png,experiment,q,q,313.7415636999649
V3,12,18,Male,Left,59,Block 1,1.1666413000202738,0.1,true,building,building,occlusion,high,mask,partial viewing,few large,Stimulus\all_stim\occlusion\partialviewing\fewlarge\high\fewlarge_partialViewing_high_building10.png,mask_img/000000014428.png,experiment,i,i,315.6294171999907
V3,12,18,Male,Left,60,Block 1,3.266784900042694,0.025,false,cat,building,occlusion,high,mask,partial viewing,many small,Stimulus\all_stim\occlusion\partialviewing\manysmall\high\manysmall_partialViewing_high_cat5.png,mask_img/000000049428.png,experiment,i,u,319.7176195999491
V3,12,18,Male,Left,61,Block 1,0.8990772000397556,0.025,true,bus,bus,occlusion,high,mask,partial viewing,few large,Stimulus\all_stim\occlusion\partialviewing\fewlarge\high\fewlarge_partialViewing_high_bus3.png,mask_img/000000015908.png,experiment,p,p,321.31729199999245
V3,12,18,Male,Left,62,Block 1,0.9135249000391923,0.1,true,bus,bus,occlusion,high,mask,partial viewing,many small,Stimulus\all_stim\occlusion\partialviewing\manysmall\high\manysmall_partialViewing_high_bus4.png,mask_img/000000047316.png,experiment,p,p,323.37324389995774
V3,12,18,Male,Left,63,Block 1,1.5514941000146791,0.025,false,person,bird,occlusion,high,mask,partial viewing,many small,Stimulus\all_stim\occlusion\partialviewing\manysmall\high\manysmall_partialViewing_high_person5.png,mask_img/000000052250.png,experiment,r,w,326.02995959995314
V3,12,18,Male,Left,64,Block 1,1.1738676999812014,0.05,false,cat,building,occlusion,low,mask,partial viewing,many small,Stimulus\all_stim\occlusion\partialviewing\manysmall\low\manysmall_partialViewing_low_cat6.png,mask_img/000000059918.png,experiment,i,u,327.925413799996
V3,12,18,Male,Left,65,Block 1,1.3410159000195563,0.1,false,person,bird,occlusion,low,mask,partial viewing,many small,Stimulus\all_stim\occlusion\partialviewing\manysmall\low\manysmall_partialViewing_low_person1.png,mask_img/000000061780.png,experiment,r,w,330.037581499957
V3,12,18,Male,Left,66,Block 1,1.0392740000388585,0.1,false,cat,bird,occlusion,high,mask,partial viewing,many small,Stimulus\all_stim\occlusion\partialviewing\manysmall\high\manysmall_partialViewing_high_cat9.png,mask_img/000000049933.png,experiment,r,u,332.07778359996155
V3,12,18,Male,Left,67,Block 1,1.421261699986644,0.1,false,firehydrant,bird,occlusion,high,mask,partial viewing,many small,Stimulus\all_stim\occlusion\partialviewing\manysmall\high\manysmall_partialViewing_high_firehydrant1.png,mask_img/000000049987.png,experiment,r,o,334.5017551999772
V3,12,18,Male,Left,68,Block 1,1.584731799957808,0.05,true,banana,banana,occlusion,control,mask,partial viewing,few large,Stimulus\all_stim\occlusion\partialviewing\fewlarge\control\fewlarge_partialViewing_control_banana2.png,mask_img/000000000312.png,experiment,e,e,336.9494870999479
V3,12,18,Male,Left,69,Block 1,0.8281406000023708,0.05,true,person,person,occlusion,control,mask,partial viewing,few large,Stimulus\all_stim\occlusion\partialviewing\fewlarge\control\fewlarge_partialViewing_control_person8.png,mask_img/000000009729.png,experiment,w,w,338.9254078999511
V3,12,18,Male,Left,70,Block 1,1.4066699999966659,0.05,true,firehydrant,firehydrant,occlusion,low,mask,partial viewing,many small,Stimulus\all_stim\occlusion\partialviewing\manysmall\low\manysmall_partialViewing_low_firehydrant6.png,mask_img/000000060647.png,experiment,o,o,341.46148850000463
V3,12,18,Male,Left,71,Block 1,3.6202364999917336,0.05,false,person,banana,occlusion,high,mask,partial viewing,many small,Stimulus\all_stim\occlusion\partialviewing\manysmall\high\manysmall_partialViewing_high_person2.png,mask_img/000000051461.png,experiment,e,w,345.9355463999673
V3,12,18,Male,Left,72,Block 1,0.8592126999865286,0.05,true,person,person,occlusion,high,mask,partial viewing,few large,Stimulus\all_stim\occlusion\partialviewing\fewlarge\high\fewlarge_partialViewing_high_person4.png,mask_img/000000020202.png,experiment,w,w,347.8856198999565
V3,12,18,Male,Left,73,Block 1,0.7671640999615192,0.05,true,bus,bus,occlusion,low,mask,partial viewing,many small,Stimulus\all_stim\occlusion\partialviewing\manysmall\low\manysmall_partialViewing_low_bus1.png,mask_img/000000058232.png,experiment,p,p,349.7656614999869
V3,12,18,Male,Left,74,Block 1,0.6547194000449963,0.05,true,bus,bus,occlusion,control,mask,partial viewing,many small,Stimulus\all_stim\occlusion\partialviewing\manysmall\control\manysmall_partialViewing_control_bus3.png,mask_img/000000036765.png,experiment,p,p,351.2853908999823
V3,12,18,Male,Left,75,Block 1,0.8306505000218749,0.05,true,building,building,occlusion,control,mask,partial viewing,few large,Stimulus\all_stim\occlusion\partialviewing\fewlarge\control\fewlarge_partialViewing_control_building5.png,mask_img/000000004642.png,experiment,i,i,352.92549549997784
V3,12,18,Male,Left,76,Block 1,2.4492640999960713,0.1,false,bus,cat,occlusion,low,mask,partial viewing,many small,Stimulus\all_stim\occlusion\partialviewing\manysmall\low\manysmall_partialViewing_low_bus10.png,mask_img/000000058595.png,experiment,u,p,356.12571189994924
V3,12,18,Male,Left,77,Block 1,1.4221565999905579,0.025,false,cat,bird,occlusion,low,mask,partial viewing,many small,Stimulus\all_stim\occlusion\partialviewing\manysmall\low\manysmall_partialViewing_low_cat4.png,mask_img/000000059483.png,experiment,r,u,358.3574370999704
V3,12,18,Male,Left,78,Block 1,0.6864505999838002,0.1,true,tree,tree,occlusion,control,mask,partial viewing,few large,Stimulus\all_stim\occlusion\partialviewing\fewlarge\control\fewlarge_partialViewing_control_tree9.png,mask_img/000000011701.png,experiment,q,q,359.90183519996936
V3,12,18,Male,Left,79,Block 1,0.8080783999757841,0.1,true,building,building,occlusion,control,mask,partial viewing,many small,Stimulus\all_stim\occlusion\partialviewing\manysmall\control\manysmall_partialViewing_control_building1.png,mask_img/000000035818.png,experiment,i,i,361.75738619995536
V3,12,18,Male,Left,80,Block 1,2.7136744000017643,0.1,false,banana,cat,occlusion,low,mask,partial viewing,many small,Stimulus\all_stim\occlusion\partialviewing\manysmall\low\manysmall_partialViewing_low_banana3.png,mask_img/000000054875.png,experiment,u,e,365.25383079994936
V3,12,18,Male,Left,81,Block 1,1.0316420000162907,0.025,true,firehydrant,firehydrant,occlusion,low,mask,partial viewing,few large,Stimulus\all_stim\occlusion\partialviewing\fewlarge\low\fewlarge_partialViewing_low_firehydrant5.png,mask_img/000000028698.png,experiment,o,o,366.9492924999795
V3,12,18,Male,Left,82,Block 1,2.0780951000051573,0.1,true,banana,banana,occlusion,high,mask,partial viewing,few large,Stimulus\all_stim\occlusion\partialviewing\fewlarge\high\fewlarge_partialViewing_high_banana6.png,mask_img/000000012548.png,experiment,e,e,370.02980259998003
V3,12,18,Male,Left,83,Block 1,1.3199802999733947,0.1,true,building,building,occlusion,high,mask,partial viewing,many small,Stimulus\all_stim\occlusion\partialviewing\manysmall\high\manysmall_partialViewing_high_building9.png,mask_img/000000046345.png,experiment,i,i,372.52579049998894
V3,12,18,Male,Left,84,Block 1,1.2338978000334464,0.05,false,firehydrant,building,occlusion,high,mask,partial viewing,many small,Stimulus\all_stim\occlusion\partialviewing\manysmall\high\manysmall_partialViewing_high_firehydrant6.png,mask_img/000000050782.png,experiment,i,o,374.9336643999559
V3,12,18,Male,Left,85,Block 1,0.8242092000436969,0.1,true,bus,bus,occlusion,low,mask,partial viewing,few large,Stimulus\all_stim\occlusion\partialviewing\fewlarge\low\fewlarge_partialViewing_low_bus10.png,mask_img/000000025855.png,experiment,p,p,377.2534109999542
V3,12,18,Male,Left,86,Block 1,0.853753300034441,0.1,true,tree,tree,occlusion,low,mask,partial viewing,few large,Stimulus\all_stim\occlusion\partialviewing\fewlarge\low\fewlarge_partialViewing_low_tree3.png,mask_img/000000031717.png,experiment,q,q,379.2134033999755
V3,12,18,Male,Left,87,Block 1,2.1391510000103153,0.025,false,banana,person,occlusion,high,mask,partial viewing,few large,Stimulus\all_stim\occlusion\partialviewing\fewlarge\high\fewlarge_partialViewing_high_banana1.png,mask_img/000000011754.png,experiment,w,e,382.10184829996433
V3,12,18,Male,Left,88,Block 1,1.5989983000326902,0.05,false,person,cat,occlusion,low,mask,partial viewing,few large,Stimulus\all_stim\occlusion\partialviewing\fewlarge\low\fewlarge_partialViewing_low_person7.png,mask_img/000000030526.png,experiment,u,w,384.73353239998687
V3,12,18,Male,Left,89,Block 1,0.7849782999837771,0.05,true,person,person,occlusion,control,mask,partial viewing,few large,Stimulus\all_stim\occlusion\partialviewing\fewlarge\control\fewlarge_partialViewing_control_person5.png,mask_img/000000009286.png,experiment,w,w,386.6533703999594
V3,12,18,Male,Left,90,Block 1,1.1388563999789767,0.1,true,banana,banana,occlusion,control,mask,partial viewing,few large,Stimulus\all_stim\occlusion\partialviewing\fewlarge\control\fewlarge_partialViewing_control_banana2.png,mask_img/000000000312.png,experiment,e,e,388.56537659995956
V3,12,18,Male,Left,91,Block 1,0.9649277999997139,0.05,true,banana,banana,occlusion,high,mask,partial viewing,few large,Stimulus\all_stim\occlusion\partialviewing\fewlarge\high\fewlarge_partialViewing_high_banana7.png,mask_img/000000012567.png,experiment,e,e,390.68554729997413
V3,12,18,Male,Left,92,Block 1,0.6877001000102609,0.025,true,bird,bird,occlusion,control,mask,partial viewing,many small,Stimulus\all_stim\occlusion\partialviewing\manysmall\control\manysmall_partialViewing_control_bird1.png,mask_img/000000034113.png,experiment,r,r,392.31766099995
V3,12,18,Male,Left,93,Block 1,0.9909165000426583,0.05,false,person,bird,occlusion,low,mask,partial viewing,few large,Stimulus\all_stim\occlusion\partialviewing\fewlarge\low\fewlarge_partialViewing_low_person9.png,mask_img/000000031017.png,experiment,r,w,394.0936432000017
V3,12,18,Male,Left,94,Block 1,1.5500579999643378,0.05,true,banana,banana,occlusion,control,mask,partial viewing,many small,Stimulus\all_stim\occlusion\partialviewing\manysmall\control\manysmall_partialViewing_control_banana3.png,mask_img/000000033323.png,experiment,e,e,396.43973789998563
V3,12,18,Male,Left,95,Block 1,3.6192763000144623,0.05,false,bird,tree,occlusion,high,mask,partial viewing,many small,Stimulus\all_stim\occlusion\partialviewing\manysmall\high\manysmall_partialViewing_high_bird6.png,mask_img/000000044523.png,experiment,q,r,401.0157731999643
V3,12,18,Male,Left,96,Block 1,0.7169849999481812,0.025,true,tree,tree,occlusion,control,mask,partial viewing,many small,Stimulus\all_stim\occlusion\partialviewing\manysmall\control\manysmall_partialViewing_control_tree9.png,mask_img/000000041840.png,experiment,q,q,402.68586269998923
V3,12,18,Male,Left,97,Block 1,0.8426062000216916,0.05,true,bird,bird,occlusion,low,mask,partial viewing,few large,Stimulus\all_stim\occlusion\partialviewing\fewlarge\low\fewlarge_partialViewing_low_bird7.png,mask_img/000000024403.png,experiment,r,r,404.2857117999811
V3,12,18,Male,Left,98,Block 1,0.7963779999990948,0.05,true,person,person,occlusion,high,mask,partial viewing,few large,Stimulus\all_stim\occlusion\partialviewing\fewlarge\high\fewlarge_partialViewing_high_person5.png,mask_img/000000020381.png,experiment,w,w,406.093533199979
V3,12,18,Male,Left,99,Block 1,0.8013006999972276,0.05,true,bus,bus,occlusion,control,mask,partial viewing,few large,Stimulus\all_stim\occlusion\partialviewing\fewlarge\control\fewlarge_partialViewing_control_bus6.png,mask_img/000000005862.png,experiment,p,p,407.8615462000016
V3,12,18,Male,Left,100,Block 1,0.7617030999972485,0.025,true,cat,cat,occlusion,control,mask,partial viewing,few large,Stimulus\all_stim\occlusion\partialviewing\fewlarge\control\fewlarge_partialViewing_control_cat2.png,mask_img/000000006489.png,experiment,u,u,409.6776642999612
V3,12,18,Male,Left,101,Block 1,1.5512645000126213,0.025,false,tree,cat,occlusion,high,mask,partial viewing,many small,Stimulus\all_stim\occlusion\partialviewing\manysmall\high\manysmall_partialViewing_high_tree5.png,mask_img/000000053410.png,experiment,u,q,412.1735854999861
V3,12,18,Male,Left,102,Block 1,0.7231178999645635,0.025,true,tree,tree,occlusion,control,mask,partial viewing,few large,Stimulus\all_stim\occlusion\partialviewing\fewlarge\control\fewlarge_partialViewing_control_tree10.png,mask_img/000000010414.png,experiment,q,q,413.9174600999686
V3,12,18,Male,Left,103,Block 1,0.7736193999880925,0.025,true,tree,tree,occlusion,high,mask,partial viewing,many small,Stimulus\all_stim\occlusion\partialviewing\manysmall\high\manysmall_partialViewing_high_tree9.png,mask_img/000000054336.png,experiment,q,q,415.8297799999709
V3,12,18,Male,Left,104,Block 1,0.6963566999766044,0.05,true,person,person,occlusion,control,mask,partial viewing,many small,Stimulus\all_stim\occlusion\partialviewing\manysmall\control\manysmall_partialViewing_control_person8.png,mask_img/000000040466.png,experiment,w,w,417.7655286999652
V3,12,18,Male,Left,105,Block 1,1.0561720000114292,0.025,true,bird,bird,occlusion,control,mask,partial viewing,many small,Stimulus\all_stim\occlusion\partialviewing\manysmall\control\manysmall_partialViewing_control_bird5.png,mask_img/000000034930.png,experiment,r,r,419.51754619996063
V3,12,18,Male,Left,106,Block 1,0.7904739000368863,0.05,true,bus,bus,occlusion,high,mask,partial viewing,few large,Stimulus\all_stim\occlusion\partialviewing\fewlarge\high\fewlarge_partialViewing_high_bus4.png,mask_img/000000015927.png,experiment,p,p,421.1413988999557
V3,12,18,Male,Left,107,Block 1,0.7189307999797165,0.025,true,building,building,occlusion,control,mask,partial viewing,many small,Stimulus\all_stim\occlusion\partialviewing\manysmall\control\manysmall_partialViewing_control_building10.png,mask_img/000000035857.png,experiment,i,i,422.85344479995547
V3,12,18,Male,Left,108,Block 1,1.3028818999882787,0.1,false,banana,bird,occlusion,high,mask,partial viewing,many small,Stimulus\all_stim\occlusion\partialviewing\manysmall\high\manysmall_partialViewing_high_banana10.png,mask_img/000000042196.png,experiment,r,e,425.32559919997584
V3,12,18,Male,Left,109,Block 1,0.8975387000245973,0.1,true,building,building,occlusion,low,mask,partial viewing,many small,Stimulus\all_stim\occlusion\partialviewing\manysmall\low\manysmall_partialViewing_low_building2.png,mask_img/000000057551.png,experiment,i,i,427.10975959995994
V3,12,18,Male,Left,110,Block 1,0.7513930999557488,0.025,true,tree,tree,occlusion,high,mask,partial viewing,many small,Stimulus\all_stim\occlusion\partialviewing\manysmall\high\manysmall_partialViewing_high_tree2.png,mask_img/000000052901.png,experiment,q,q,428.5413620999898
V3,12,18,Male,Left,111,Block 1,0.6774245999986306,0.05,true,bus,bus,occlusion,high,mask,partial viewing,few large,Stimulus\all_stim\occlusion\partialviewing\fewlarge\high\fewlarge_partialViewing_high_bus6.png,mask_img/000000015987.png,experiment,p,p,430.03740029997425
V3,12,18,Male,Left,112,Block 1,0.6914901999989524,0.05,true,building,building,occlusion,low,mask,partial viewing,many small,Stimulus\all_stim\occlusion\partialviewing\manysmall\low\manysmall_partialViewing_low_building2.png,mask_img/000000057551.png,experiment,i,i,431.7654260999989
V3,12,18,Male,Left,113,Block 1,0.5744115000125021,0.05,false,person,banana,occlusion,low,mask,partial viewing,few large,Stimulus\all_stim\occlusion\partialviewing\fewlarge\low\fewlarge_partialViewing_low_person8.png,mask_img/000000030611.png,experiment,e,w,433.39892279997
V3,12,18,Male,Left,114,Block 1,0.9870206999476068,0.1,true,bus,bus,occlusion,low,mask,partial viewing,many small,Stimulus\all_stim\occlusion\partialviewing\manysmall\low\manysmall_partialViewing_low_bus8.png,mask_img/000000058873.png,experiment,p,p,435.3095468999818
V3,12,18,Male,Left,115,Block 1,1.4958286000182852,0.025,true,banana,banana,occlusion,control,mask,partial viewing,many small,Stimulus\all_stim\occlusion\partialviewing\manysmall\control\manysmall_partialViewing_control_banana1.png,mask_img/000000033073.png,experiment,e,e,437.8218446999672
V3,12,18,Male,Left,116,Block 1,1.569051300000865,0.05,true,bird,bird,occlusion,high,mask,partial viewing,many small,Stimulus\all_stim\occlusion\partialviewing\manysmall\high\manysmall_partialViewing_high_bird9.png,mask_img/000000044946.png,experiment,r,r,440.5336671999539
V3,12,18,Male,Left,117,Block 1,1.472829099977389,0.05,true,banana,banana,occlusion,high,mask,partial viewing,many small,Stimulus\all_stim\occlusion\partialviewing\manysmall\high\manysmall_partialViewing_high_banana10.png,mask_img/000000042196.png,experiment,e,e,443.0614650999778
V3,12,18,Male,Left,118,Block 1,0.7491283999988809,0.1,true,tree,tree,occlusion,control,mask,partial viewing,few large,Stimulus\all_stim\occlusion\partialviewing\fewlarge\control\fewlarge_partialViewing_control_tree5.png,mask_img/000000010991.png,experiment,q,q,445.07759419997456
V3,12,18,Male,Left,119,Block 1,0.6002710000029765,0.05,true,bus,bus,occlusion,control,mask,partial viewing,many small,Stimulus\all_stim\occlusion\partialviewing\manysmall\control\manysmall_partialViewing_control_bus6.png,mask_img/000000037174.png,experiment,p,p,446.7673949999735
V3,12,18,Male,Left,120,Block 1,1.335226800001692,0.1,true,building,building,occlusion,high,mask,partial viewing,many small,Stimulus\all_stim\occlusion\partialviewing\manysmall\high\manysmall_partialViewing_high_building8.png,mask_img/000000046245.png,experiment,i,i,449.1975397999631
V3,12,18,Male,Left,121,Block 1,1.267036699980963,0.05,true,banana,banana,occlusion,low,mask,partial viewing,few large,Stimulus\all_stim\occlusion\partialviewing\fewlarge\low\fewlarge_partialViewing_low_banana8.png,mask_img/000000023656.png,experiment,e,e,451.65372939995723
V3,12,18,Male,Left,122,Block 1,3.071917900000699,0.025,true,bus,bus,occlusion,high,mask,partial viewing,many small,Stimulus\all_stim\occlusion\partialviewing\manysmall\high\manysmall_partialViewing_high_bus1.png,mask_img/000000046676.png,experiment,p,p,455.75756529998034
V3,12,18,Male,Left,123,Block 1,2.7972200999502093,0.1,true,firehydrant,firehydrant,occlusion,high,mask,partial viewing,many small,Stimulus\all_stim\occlusion\partialviewing\manysmall\high\manysmall_partialViewing_high_firehydrant6.png,mask_img/000000050782.png,experiment,o,o,459.34167279995745
V3,12,18,Male,Left,124,Block 1,2.4283502000034787,0.05,false,person,banana,occlusion,high,mask,partial viewing,many small,Stimulus\all_stim\occlusion\partialviewing\manysmall\high\manysmall_partialViewing_high_person7.png,mask_img/000000052562.png,experiment,e,w,462.5419744999963
V3,12,18,Male,Left,125,Block 1,0.761766700015869,0.1,true,bird,bird,occlusion,control,mask,partial viewing,many small,Stimulus\all_stim\occlusion\partialviewing\manysmall\control\manysmall_partialViewing_control_bird9.png,mask_img/000000035514.png,experiment,r,r,464.0057203999604
V3,12,18,Male,Left,126,Block 1,0.8943298999802209,0.025,false,firehydrant,person,occlusion,high,mask,partial viewing,few large,Stimulus\all_stim\occlusion\partialviewing\fewlarge\high\fewlarge_partialViewing_high_firehydrant8.png,mask_img/000000019528.png,experiment,w,o,465.62153239996405
V3,12,18,Male,Left,127,Block 1,1.4655639000120573,0.025,true,building,building,occlusion,control,mask,partial viewing,few large,Stimulus\all_stim\occlusion\partialviewing\fewlarge\control\fewlarge_partialViewing_control_building5.png,mask_img/000000004642.png,experiment,i,i,467.9577605999657
V3,12,18,Male,Left,128,Block 1,0.7931340000359342,0.025,true,tree,tree,occlusion,high,mask,partial viewing,few large,Stimulus\all_stim\occlusion\partialviewing\fewlarge\high\fewlarge_partialViewing_high_tree7.png,mask_img/000000022256.png,experiment,q,q,469.7418681999552
V3,12,18,Male,Left,129,Block 1,3.0804909999715164,0.05,true,bus,bus,occlusion,high,mask,partial viewing,many small,Stimulus\all_stim\occlusion\partialviewing\manysmall\high\manysmall_partialViewing_high_bus4.png,mask_img/000000047316.png,experiment,p,p,473.637765099993
V3,12,18,Male,Left,130,Block 1,1.1604663000325672,0.05,true,bird,bird,occlusion,high,mask,partial viewing,few large,Stimulus\all_stim\occlusion\partialviewing\fewlarge\high\fewlarge_partialViewing_high_bird3.png,mask_img/000000013455.png,experiment,r,r,475.9174318999867
V3,12,18,Male,Left,131,Block 1,0.7672864999622107,0.025,true,bird,bird,occlusion,control,mask,partial viewing,few large,Stimulus\all_stim\occlusion\partialviewing\fewlarge\control\fewlarge_partialViewing_control_bird7.png,mask_img/000000002774.png,experiment,r,r,477.76553999999305
V3,12,18,Male,Left,132,Block 1,0.6883910999749787,0.05,true,tree,tree,occlusion,high,mask,partial viewing,few large,Stimulus\all_stim\occlusion\partialviewing\fewlarge\high\fewlarge_partialViewing_high_tree5.png,mask_img/000000022102.png,experiment,q,q,479.2457394999801
V3,12,18,Male,Left,133,Block 1,0.6479823000263423,0.025,true,bus,bus,occlusion,high,mask,partial viewing,few large,Stimulus\all_stim\occlusion\partialviewing\fewlarge\high\fewlarge_partialViewing_high_bus6.png,mask_img/000000015987.png,experiment,p,p,480.83764029998565
V3,12,18,Male,Left,134,Block 1,0.9800705999950878,0.025,false,cat,building,occlusion,high,mask,partial viewing,few large,Stimulus\all_stim\occlusion\partialviewing\fewlarge\high\fewlarge_partialViewing_high_cat9.png,mask_img/000000017858.png,experiment,i,u,482.72556939994683
V3,12,18,Male,Left,135,Block 1,2.7294537000125274,0.1,false,bird,cat,occlusion,low,mask,partial viewing,many small,Stimulus\all_stim\occlusion\partialviewing\manysmall\low\manysmall_partialViewing_low_bird4.png,mask_img/000000055859.png,experiment,u,r,486.2553079999634
V3,12,18,Male,Left,136,Block 1,1.3761955000227317,0.025,true,banana,banana,occlusion,control,mask,partial viewing,many small,Stimulus\all_stim\occlusion\partialviewing\manysmall\control\manysmall_partialViewing_control_banana4.png,mask_img/000000033667.png,experiment,e,e,488.5495740000042
V3,12,18,Male,Left,137,Block 1,1.1820784999872558,0.025,true,building,building,occlusion,high,mask,partial viewing,few large,Stimulus\all_stim\occlusion\partialviewing\fewlarge\high\fewlarge_partialViewing_high_building1.png,mask_img/000000014335.png,experiment,i,i,490.6614164999919
V3,12,18,Male,Left,138,Block 1,1.3442123999702744,0.1,true,cat,cat,occlusion,control,mask,partial viewing,many small,Stimulus\all_stim\occlusion\partialviewing\manysmall\control\manysmall_partialViewing_control_cat8.png,mask_img/000000038817.png,experiment,u,u,493.1499215999502
V3,12,18,Male,Left,139,Block 1,2.4182855999679305,0.025,false,firehydrant,building,occlusion,high,mask,partial viewing,many small,Stimulus\all_stim\occlusion\partialviewing\manysmall\high\manysmall_partialViewing_high_firehydrant3.png,mask_img/000000050276.png,experiment,i,o,496.6617364999838
V3,12,18,Male,Left,140,Block 1,6.886682500015013,0.025,false,bird,tree,occlusion,high,mask,partial viewing,few large,Stimulus\all_stim\occlusion\partialviewing\fewlarge\high\fewlarge_partialViewing_high_bird4.png,mask_img/000000013721.png,experiment,q,r,504.55788649996975
V3,12,18,Male,Left,141,Block 1,0.6790522999945097,0.05,true,bus,bus,occlusion,control,mask,partial viewing,many small,Stimulus\all_stim\occlusion\partialviewing\manysmall\control\manysmall_partialViewing_control_bus5.png,mask_img/000000037140.png,experiment,p,p,506.33360209997045
V3,12,18,Male,Left,142,Block 1,1.3449094999814406,0.025,true,firehydrant,firehydrant,occlusion,high,mask,partial viewing,few large,Stimulus\all_stim\occlusion\partialviewing\fewlarge\high\fewlarge_partialViewing_high_firehydrant4.png,mask_img/000000018882.png,experiment,o,o,508.38187629997265
V3,12,18,Male,Left,143,Block 1,2.684552300022915,0.025,false,bird,cat,occlusion,high,mask,partial viewing,many small,Stimulus\all_stim\occlusion\partialviewing\manysmall\high\manysmall_partialViewing_high_bird9.png,mask_img/000000044946.png,experiment,u,r,512.19131559995
V3,12,18,Male,Left,144,Block 1,1.1896572000114247,0.05,true,tree,tree,occlusion,high,mask,partial viewing,few large,Stimulus\all_stim\occlusion\partialviewing\fewlarge\high\fewlarge_partialViewing_high_tree9.png,mask_img/000000022440.png,experiment,q,q,589.3739302000031
V3,12,18,Male,Left,145,Block 2,1.3613995999912731,0.1,false,firehydrant,building,occlusion,high,mask,partial viewing,few large,Stimulus\all_stim\occlusion\partialviewing\fewlarge\high\fewlarge_partialViewing_high_firehydrant4.png,mask_img/000000018882.png,experiment,i,o,591.6220541999792
V3,12,18,Male,Left,146,Block 2,0.9484097000095062,0.1,true,firehydrant,firehydrant,occlusion,control,mask,partial viewing,few large,Stimulus\all_stim\occlusion\partialviewing\fewlarge\control\fewlarge_partialViewing_control_firehydrant1.png,mask_img/000000007740.png,experiment,o,o,593.3046860999893
V3,12,18,Male,Left,147,Block 2,1.1247831999789923,0.1,true,banana,banana,occlusion,high,mask,partial viewing,many small,Stimulus\all_stim\occlusion\partialviewing\manysmall\high\manysmall_partialViewing_high_banana8.png,mask_img/000000043291.png,experiment,e,e,595.1417333999998
V3,12,18,Male,Left,148,Block 2,0.7544123000116087,0.1,true,bus,bus,occlusion,high,mask,partial viewing,many small,Stimulus\all_stim\occlusion\partialviewing\manysmall\high\manysmall_partialViewing_high_bus3.png,mask_img/000000047229.png,experiment,p,p,596.6857142999652
V3,12,18,Male,Left,149,Block 2,1.1401480000349693,0.025,true,firehydrant,firehydrant,occlusion,control,mask,partial viewing,few large,Stimulus\all_stim\occlusion\partialviewing\fewlarge\control\fewlarge_partialViewing_control_firehydrant3.png,mask_img/000000007946.png,experiment,o,o,598.5817032999475
V3,12,18,Male,Left,150,Block 2,1.6583113999804482,0.05,true,cat,cat,occlusion,control,mask,partial viewing,few large,Stimulus\all_stim\occlusion\partialviewing\fewlarge\control\fewlarge_partialViewing_control_cat9.png,mask_img/000000007558.png,experiment,u,u,601.0617595999502
V3,12,18,Male,Left,151,Block 2,0.7695942000136711,0.025,true,bus,bus,occlusion,control,mask,partial viewing,few large,Stimulus\all_stim\occlusion\partialviewing\fewlarge\control\fewlarge_partialViewing_control_bus8.png,mask_img/000000006153.png,experiment,p,p,602.858437399962
V3,12,18,Male,Left,152,Block 2,0.5837345999898389,0.05,true,bus,bus,occlusion,low,mask,partial viewing,few large,Stimulus\all_stim\occlusion\partialviewing\fewlarge\low\fewlarge_partialViewing_low_bus5.png,mask_img/000000026497.png,experiment,p,p,604.2253536999924
V3,12,18,Male,Left,153,Block 2,0.547918500029482,0.025,true,bus,bus,occlusion,low,mask,partial viewing,many small,Stimulus\all_stim\occlusion\partialviewing\manysmall\low\manysmall_partialViewing_low_bus5.png,mask_img/000000058801.png,experiment,p,p,605.7270950999809
V3,12,18,Male,Left,154,Block 2,1.3813546000164934,0.05,true,building,building,occlusion,high,mask,partial viewing,many small,Stimulus\all_stim\occlusion\partialviewing\manysmall\high\manysmall_partialViewing_high_building1.png,mask_img/000000044950.png,experiment,i,i,607.7813878000015
V3,12,18,Male,Left,155,Block 2,0.6560163999674842,0.025,true,building,building,occlusion,control,mask,partial viewing,few large,Stimulus\all_stim\occlusion\partialviewing\fewlarge\control\fewlarge_partialViewing_control_building3.png,mask_img/000000003694.png,experiment,i,i,609.145425499999
V3,12,18,Male,Left,156,Block 2,0.4925470000016503,0.1,true,building,building,occlusion,control,mask,partial viewing,many small,Stimulus\all_stim\occlusion\partialviewing\manysmall\control\manysmall_partialViewing_control_building7.png,mask_img/000000036029.png,experiment,i,i,610.310752499965
V3,12,18,Male,Left,157,Block 2,0.7590007000253536,0.05,true,firehydrant,firehydrant,occlusion,high,mask,partial viewing,few large,Stimulus\all_stim\occlusion\partialviewing\fewlarge\high\fewlarge_partialViewing_high_firehydrant3.png,mask_img/000000018864.png,experiment,o,o,611.8777269999846
V3,12,18,Male,Left,158,Block 2,1.130673499952536,0.05,true,bird,bird,occlusion,control,mask,partial viewing,many small,Stimulus\all_stim\occlusion\partialviewing\manysmall\control\manysmall_partialViewing_control_bird10.png,mask_img/000000034304.png,experiment,r,r,613.813568499987
V3,12,18,Male,Left,159,Block 2,0.6431165000540204,0.05,true,tree,tree,occlusion,high,mask,partial viewing,many small,Stimulus\all_stim\occlusion\partialviewing\manysmall\high\manysmall_partialViewing_high_tree2.png,mask_img/000000052901.png,experiment,q,q,615.4055605999893
V3,12,18,Male,Left,160,Block 2,2.077212399977725,0.1,true,firehydrant,firehydrant,occlusion,control,mask,partial viewing,few large,Stimulus\all_stim\occlusion\partialviewing\fewlarge\control\fewlarge_partialViewing_control_firehydrant7.png,mask_img/000000008053.png,experiment,o,o,618.629842299968
V3,12,18,Male,Left,161,Block 2,0.7385982000268996,0.1,true,person,person,occlusion,control,mask,partial viewing,few large,Stimulus\all_stim\occlusion\partialviewing\fewlarge\control\fewlarge_partialViewing_control_person3.png,mask_img/000000008920.png,experiment,w,w,620.439516399987
V3,12,18,Male,Left,162,Block 2,1.0034451000392437,0.025,false,bird,tree,occlusion,low,mask,partial viewing,many small,Stimulus\all_stim\occlusion\partialviewing\manysmall\low\manysmall_partialViewing_low_bird4.png,mask_img/000000055859.png,experiment,q,r,622.2378130999859
V3,12,18,Male,Left,163,Block 2,1.3360651000402868,0.025,true,cat,cat,occlusion,high,mask,partial viewing,few large,Stimulus\all_stim\occlusion\partialviewing\fewlarge\high\fewlarge_partialViewing_high_cat4.png,mask_img/000000017364.png,experiment,u,u,624.6054850999499
V3,12,18,Male,Left,164,Block 2,0.7654267000034451,0.025,true,bird,bird,occlusion,control,mask,partial viewing,many small,Stimulus\all_stim\occlusion\partialviewing\manysmall\control\manysmall_partialViewing_control_bird7.png,mask_img/000000035132.png,experiment,r,r,626.4456649999483
V3,12,18,Male,Left,165,Block 2,0.6744713000371121,0.05,true,tree,tree,occlusion,low,mask,partial viewing,few large,Stimulus\all_stim\occlusion\partialviewing\fewlarge\low\fewlarge_partialViewing_low_tree2.png,mask_img/000000031601.png,experiment,q,q,628.1182543999748
V3,12,18,Male,Left,166,Block 2,1.3627581999753602,0.1,true,building,building,occlusion,low,mask,partial viewing,many small,Stimulus\all_stim\occlusion\partialviewing\manysmall\low\manysmall_partialViewing_low_building3.png,mask_img/000000057646.png,experiment,i,i,630.5255289999768
V3,12,18,Male,Left,167,Block 2,0.7527347000432201,0.05,true,person,person,occlusion,control,mask,partial viewing,few large,Stimulus\all_stim\occlusion\partialviewing\fewlarge\control\fewlarge_partialViewing_control_person2.png,mask_img/000000008787.png,experiment,w,w,632.1496405999642
V3,12,18,Male,Left,168,Block 2,1.3162232000031509,0.025,true,banana,banana,occlusion,control,mask,partial viewing,many small,Stimulus\all_stim\occlusion\partialviewing\manysmall\control\manysmall_partialViewing_control_banana7.png,mask_img/000000033861.png,experiment,e,e,634.2137499999953
V3,12,18,Male,Left,169,Block 2,1.0034239999949932,0.025,true,building,building,occlusion,low,mask,partial viewing,many small,Stimulus\all_stim\occlusion\partialviewing\manysmall\low\manysmall_partialViewing_low_building8.png,mask_img/000000058073.png,experiment,i,i,636.2454328999738
V3,12,18,Male,Left,170,Block 2,2.2457467000349425,0.025,false,person,bird,occlusion,low,mask,partial viewing,many small,Stimulus\all_stim\occlusion\partialviewing\manysmall\low\manysmall_partialViewing_low_person9.png,mask_img/000000062427.png,experiment,r,w,639.1581098999595
V3,12,18,Male,Left,171,Block 2,0.7551415999769233,0.025,true,tree,tree,occlusion,high,mask,partial viewing,many small,Stimulus\all_stim\occlusion\partialviewing\manysmall\high\manysmall_partialViewing_high_tree10.png,mask_img/000000052818.png,experiment,q,q,640.9355026999838
V3,12,18,Male,Left,172,Block 2,2.7355451000039466,0.05,false,person,banana,occlusion,high,mask,partial viewing,many small,Stimulus\all_stim\occlusion\partialviewing\manysmall\high\manysmall_partialViewing_high_person6.png,mask_img/000000052426.png,experiment,e,w,644.4944723999943
V3,12,18,Male,Left,173,Block 2,1.147408800025005,0.025,true,bird,bird,occlusion,high,mask,partial viewing,few large,Stimulus\all_stim\occlusion\partialviewing\fewlarge\high\fewlarge_partialViewing_high_bird8.png,mask_img/000000014168.png,experiment,r,r,646.3174247999559
V3,12,18,Male,Left,174,Block 2,0.6425077000167221,0.05,true,tree,tree,occlusion,high,mask,partial viewing,few large,Stimulus\all_stim\occlusion\partialviewing\fewlarge\high\fewlarge_partialViewing_high_tree7.png,mask_img/000000022256.png,experiment,q,q,647.6218624999747
V3,12,18,Male,Left,175,Block 2,0.6987614000099711,0.1,true,bus,bus,occlusion,high,mask,partial viewing,few large,Stimulus\all_stim\occlusion\partialviewing\fewlarge\high\fewlarge_partialViewing_high_bus2.png,mask_img/000000015862.png,experiment,p,p,648.9977164999582
V3,12,18,Male,Left,176,Block 2,0.5820686999941245,0.025,true,bus,bus,occlusion,low,mask,partial viewing,few large,Stimulus\all_stim\occlusion\partialviewing\fewlarge\low\fewlarge_partialViewing_low_bus4.png,mask_img/000000026053.png,experiment,p,p,650.493622399983
V3,12,18,Male,Left,177,Block 2,0.7776878000004217,0.1,true,bird,bird,occlusion,control,mask,partial viewing,few large,Stimulus\all_stim\occlusion\partialviewing\fewlarge\control\fewlarge_partialViewing_control_bird5.png,mask_img/000000002197.png,experiment,r,r,652.1177590999869
V3,12,18,Male,Left,178,Block 2,1.6458225999958813,0.05,true,bus,bus,occlusion,control,mask,partial viewing,many small,Stimulus\all_stim\occlusion\partialviewing\manysmall\control\manysmall_partialViewing_control_bus4.png,mask_img/000000036966.png,experiment,p,p,654.4696772999596
V3,12,18,Male,Left,179,Block 2,0.6658321000286378,0.1,true,tree,tree,occlusion,low,mask,partial viewing,few large,Stimulus\all_stim\occlusion\partialviewing\fewlarge\low\fewlarge_partialViewing_low_tree9.png,mask_img/000000032965.png,experiment,q,q,656.1610206000041
V3,12,18,Male,Left,180,Block 2,1.4274591000285,0.05,true,banana,banana,occlusion,high,mask,partial viewing,few large,Stimulus\all_stim\occlusion\partialviewing\fewlarge\high\fewlarge_partialViewing_high_banana4.png,mask_img/000000012377.png,experiment,e,e,658.3415748999687
V3,12,18,Male,Left,181,Block 2,1.2342385000083596,0.1,false,cat,bird,occlusion,high,mask,partial viewing,many small,Stimulus\all_stim\occlusion\partialviewing\manysmall\high\manysmall_partialViewing_high_cat5.png,mask_img/000000049428.png,experiment,r,u,660.5098241999513
V3,12,18,Male,Left,182,Block 2,0.6454006999847479,0.1,true,tree,tree,occlusion,low,mask,partial viewing,few large,Stimulus\all_stim\occlusion\partialviewing\fewlarge\low\fewlarge_partialViewing_low_tree4.png,mask_img/000000032364.png,experiment,q,q,661.9134420999908
V3,12,18,Male,Left,183,Block 2,1.2502054000506178,0.025,true,banana,banana,occlusion,high,mask,partial viewing,many small,Stimulus\all_stim\occlusion\partialviewing\manysmall\high\manysmall_partialViewing_high_banana2.png,mask_img/000000042408.png,experiment,e,e,663.9577866999898
V3,12,18,Male,Left,184,Block 2,1.2639613999635912,0.025,false,cat,tree,occlusion,high,mask,partial viewing,many small,Stimulus\all_stim\occlusion\partialviewing\manysmall\high\manysmall_partialViewing_high_cat2.png,mask_img/000000049092.png,experiment,q,u,666.0695024000015
V3,12,18,Male,Left,185,Block 2,0.718949000001885,0.025,true,person,person,occlusion,high,mask,partial viewing,few large,Stimulus\all_stim\occlusion\partialviewing\fewlarge\high\fewlarge_partialViewing_high_person9.png,mask_img/000000021003.png,experiment,w,w,667.4937273999676
V3,12,18,Male,Left,186,Block 2,2.4209496999974363,0.1,false,cat,building,occlusion,high,mask,partial viewing,many small,Stimulus\all_stim\occlusion\partialviewing\manysmall\high\manysmall_partialViewing_high_cat6.png,mask_img/000000049562.png,experiment,i,u,670.8537857999909
V3,12,18,Male,Left,187,Block 2,1.7089251999859698,0.1,false,banana,building,occlusion,control,mask,partial viewing,many small,Stimulus\all_stim\occlusion\partialviewing\manysmall\control\manysmall_partialViewing_control_banana7.png,mask_img/000000033861.png,experiment,i,e,673.2136375999544
V3,12,18,Male,Left,188,Block 2,0.7228600999806076,0.1,true,building,building,occlusion,control,mask,partial viewing,many small,Stimulus\all_stim\occlusion\partialviewing\manysmall\control\manysmall_partialViewing_control_building4.png,mask_img/000000035985.png,experiment,i,i,674.8137541000033
V3,12,18,Male,Left,189,Block 2,1.1983445000369102,0.025,false,banana,tree,occlusion,high,mask,partial viewing,many small,Stimulus\all_stim\occlusion\partialviewing\manysmall\high\manysmall_partialViewing_high_banana10.png,mask_img/000000042196.png,experiment,q,e,676.7178675999749
V3,12,18,Male,Left,190,Block 2,0.6037293000263162,0.05,true,bus,bus,occlusion,control,mask,partial viewing,few large,Stimulus\all_stim\occlusion\partialviewing\fewlarge\control\fewlarge_partialViewing_control_bus8.png,mask_img/000000006153.png,experiment,p,p,677.9896700999816
V3,12,18,Male,Left,191,Block 2,0.6996963000274263,0.05,true,building,building,occlusion,low,mask,partial viewing,many small,Stimulus\all_stim\occlusion\partialviewing\manysmall\low\manysmall_partialViewing_low_building1.png,mask_img/000000056716.png,experiment,i,i,679.77406039997
V3,12,18,Male,Left,192,Block 2,1.1899126000353135,0.05,true,banana,banana,occlusion,control,mask,partial viewing,many small,Stimulus\all_stim\occlusion\partialviewing\manysmall\control\manysmall_partialViewing_control_banana8.png,mask_img/000000033904.png,experiment,e,e,682.0137828000006
V3,12,18,Male,Left,193,Block 2,1.0584433000185527,0.1,true,cat,cat,occlusion,high,mask,partial viewing,few large,Stimulus\all_stim\occlusion\partialviewing\fewlarge\high\fewlarge_partialViewing_high_cat2.png,mask_img/000000017352.png,experiment,u,u,684.0936394999735
V3,12,18,Male,Left,194,Block 2,1.579864900035318,0.05,true,banana,banana,occlusion,high,mask,partial viewing,few large,Stimulus\all_stim\occlusion\partialviewing\fewlarge\high\fewlarge_partialViewing_high_banana1.png,mask_img/000000011754.png,experiment,e,e,686.6858246999909
V3,12,18,Male,Left,195,Block 2,1.2217350999708287,0.025,false,banana,tree,occlusion,high,mask,partial viewing,many small,Stimulus\all_stim\occlusion\partialviewing\manysmall\high\manysmall_partialViewing_high_banana5.png,mask_img/000000042541.png,experiment,q,e,688.6614746999694
V3,12,18,Male,Left,196,Block 2,0.6264129999908619,0.025,true,building,building,occlusion,control,mask,partial viewing,many small,Stimulus\all_stim\occlusion\partialviewing\manysmall\control\manysmall_partialViewing_control_building2.png,mask_img/000000035864.png,experiment,i,i,689.9734849999659
V3,12,18,Male,Left,197,Block 2,0.8010750000248663,0.025,true,tree,tree,occlusion,high,mask,partial viewing,few large,Stimulus\all_stim\occlusion\partialviewing\fewlarge\high\fewlarge_partialViewing_high_tree10.png,mask_img/000000021419.png,experiment,q,q,691.6455210999702
V3,12,18,Male,Left,198,Block 2,0.5884450000012293,0.025,true,tree,tree,occlusion,high,mask,partial viewing,many small,Stimulus\all_stim\occlusion\partialviewing\manysmall\high\manysmall_partialViewing_high_tree6.png,mask_img/000000053539.png,experiment,q,q,692.9585205999902
V3,12,18,Male,Left,199,Block 2,0.5175812999950722,0.1,true,tree,tree,occlusion,high,mask,partial viewing,few large,Stimulus\all_stim\occlusion\partialviewing\fewlarge\high\fewlarge_partialViewing_high_tree9.png,mask_img/000000022440.png,experiment,q,q,694.55863829999
V3,12,18,Male,Left,200,Block 2,0.7905155000044033,0.1,true,bird,bird,occlusion,high,mask,partial viewing,few large,Stimulus\all_stim\occlusion\partialviewing\fewlarge\high\fewlarge_partialViewing_high_bird8.png,mask_img/000000014168.png,experiment,r,r,696.0299597999547
V3,12,18,Male,Left,201,Block 2,0.6850693000014871,0.025,false,cat,building,occlusion,control,mask,partial viewing,many small,Stimulus\all_stim\occlusion\partialviewing\manysmall\control\manysmall_partialViewing_control_cat5.png,mask_img/000000038601.png,experiment,i,u,697.8613188999589
V3,12,18,Male,Left,202,Block 2,0.9240825999877416,0.1,true,person,person,occlusion,low,mask,partial viewing,many small,Stimulus\all_stim\occlusion\partialviewing\manysmall\low\manysmall_partialViewing_low_person7.png,mask_img/000000062350.png,experiment,w,w,699.6939277999918
V3,12,18,Male,Left,203,Block 2,0.8909460999420844,0.025,false,firehydrant,person,occlusion,low,mask,partial viewing,many small,Stimulus\all_stim\occlusion\partialviewing\manysmall\low\manysmall_partialViewing_low_firehydrant4.png,mask_img/000000060610.png,experiment,w,o,701.3022231999785
V3,12,18,Male,Left,204,Block 2,0.76716500002658,0.025,true,building,building,occlusion,control,mask,partial viewing,many small,Stimulus\all_stim\occlusion\partialviewing\manysmall\control\manysmall_partialViewing_control_building4.png,mask_img/000000035985.png,experiment,i,i,702.8053253999678
V3,12,18,Male,Left,205,Block 2,0.7062445000046864,0.05,true,bird,bird,occlusion,control,mask,partial viewing,many small,Stimulus\all_stim\occlusion\partialviewing\manysmall\control\manysmall_partialViewing_control_bird5.png,mask_img/000000034930.png,experiment,r,r,704.3257704999996
V3,12,18,Male,Left,206,Block 2,0.7683483000146225,0.025,false,person,tree,occlusion,low,mask,partial viewing,many small,Stimulus\all_stim\occlusion\partialviewing\manysmall\low\manysmall_partialViewing_low_person4.png,mask_img/000000062131.png,experiment,q,w,706.1579825999797
V3,12,18,Male,Left,207,Block 2,1.3936425999854691,0.05,true,banana,banana,occlusion,control,mask,partial viewing,few large,Stimulus\all_stim\occlusion\partialviewing\fewlarge\control\fewlarge_partialViewing_control_banana1.png,mask_img/000000000042.png,experiment,e,e,708.5012452999945
V3,12,18,Male,Left,208,Block 2,2.1003916999907233,0.05,false,person,cat,occlusion,high,mask,partial viewing,many small,Stimulus\all_stim\occlusion\partialviewing\manysmall\high\manysmall_partialViewing_high_person5.png,mask_img/000000052250.png,experiment,u,w,711.3420363999903
V3,12,18,Male,Left,209,Block 2,0.8367471999954432,0.1,true,building,building,occlusion,control,mask,partial viewing,many small,Stimulus\all_stim\occlusion\partialviewing\manysmall\control\manysmall_partialViewing_control_building10.png,mask_img/000000035857.png,experiment,i,i,713.2453560999711
V3,12,18,Male,Left,210,Block 2,0.941987500002142,0.025,true,firehydrant,firehydrant,occlusion,control,mask,partial viewing,few large,Stimulus\all_stim\occlusion\partialviewing\fewlarge\control\fewlarge_partialViewing_control_firehydrant5.png,mask_img/000000008006.png,experiment,o,o,715.1175221999874
V3,12,18,Male,Left,211,Block 2,0.6618947999668308,0.05,true,bird,bird,occlusion,low,mask,partial viewing,few large,Stimulus\all_stim\occlusion\partialviewing\fewlarge\low\fewlarge_partialViewing_low_bird8.png,mask_img/000000024404.png,experiment,r,r,716.8333079000004
V3,12,18,Male,Left,212,Block 2,1.5744193000136875,0.025,true,bird,bird,occlusion,control,mask,partial viewing,few large,Stimulus\all_stim\occlusion\partialviewing\fewlarge\control\fewlarge_partialViewing_control_bird6.png,mask_img/000000002337.png,experiment,r,r,719.2297020999831
V3,12,18,Male,Left,213,Block 2,0.8044363999506459,0.1,true,banana,banana,occlusion,low,mask,partial viewing,many small,Stimulus\all_stim\occlusion\partialviewing\manysmall\low\manysmall_partialViewing_low_banana1.png,mask_img/000000054532.png,experiment,e,e,720.8294994999887
V3,12,18,Male,Left,214,Block 2,0.8767281000036746,0.025,true,bus,bus,occlusion,low,mask,partial viewing,many small,Stimulus\all_stim\occlusion\partialviewing\manysmall\low\manysmall_partialViewing_low_bus3.png,mask_img/000000058647.png,experiment,p,p,722.7415880999761
V3,12,18,Male,Left,215,Block 2,1.007431199948769,0.05,true,cat,cat,occlusion,control,mask,partial viewing,few large,Stimulus\all_stim\occlusion\partialviewing\fewlarge\control\fewlarge_partialViewing_control_cat4.png,mask_img/000000006842.png,experiment,u,u,724.56551819999
V3,12,18,Male,Left,216,Block 2,0.7997847000369802,0.025,true,bird,bird,occlusion,control,mask,partial viewing,many small,Stimulus\all_stim\occlusion\partialviewing\manysmall\control\manysmall_partialViewing_control_bird10.png,mask_img/000000034304.png,experiment,r,r,726.4857761999592
V3,12,18,Male,Left,217,Block 2,0.7523656999692321,0.05,true,building,building,occlusion,control,mask,partial viewing,few large,Stimulus\all_stim\occlusion\partialviewing\fewlarge\control\fewlarge_partialViewing_control_building7.png,mask_img/000000004936.png,experiment,i,i,727.9175284999656
V3,12,18,Male,Left,218,Block 2,0.5265344000072218,0.05,true,bus,bus,occlusion,control,mask,partial viewing,few large,Stimulus\all_stim\occlusion\partialviewing\fewlarge\control\fewlarge_partialViewing_control_bus4.png,mask_img/000000005574.png,experiment,p,p,729.4212513999664
V3,12,18,Male,Left,219,Block 2,0.7957777000265196,0.05,true,firehydrant,firehydrant,occlusion,control,mask,partial viewing,many small,Stimulus\all_stim\occlusion\partialviewing\manysmall\control\manysmall_partialViewing_control_firehydrant5.png,mask_img/000000039211.png,experiment,o,o,731.2217479999526
V3,12,18,Male,Left,220,Block 2,1.2326494000153616,0.1,true,building,building,occlusion,control,mask,partial viewing,few large,Stimulus\all_stim\occlusion\partialviewing\fewlarge\control\fewlarge_partialViewing_control_building7.png,mask_img/000000004936.png,experiment,i,i,733.6056354999891
V3,12,18,Male,Left,221,Block 2,1.52954779996071,0.025,true,bus,bus,occlusion,high,mask,partial viewing,many small,Stimulus\all_stim\occlusion\partialviewing\manysmall\high\manysmall_partialViewing_high_bus2.png,mask_img/000000046852.png,experiment,p,p,735.813399799983
V3,12,18,Male,Left,222,Block 2,0.845184700039681,0.05,true,person,person,occlusion,high,mask,partial viewing,few large,Stimulus\all_stim\occlusion\partialviewing\fewlarge\high\fewlarge_partialViewing_high_person3.png,mask_img/000000020147.png,experiment,w,w,737.7094120999682
V3,12,18,Male,Left,223,Block 2,0.7062195999897085,0.05,true,firehydrant,firehydrant,occlusion,control,mask,partial viewing,few large,Stimulus\all_stim\occlusion\partialviewing\fewlarge\control\fewlarge_partialViewing_control_firehydrant9.png,mask_img/000000008329.png,experiment,o,o,739.4617845999892
V3,12,18,Male,Left,224,Block 2,1.0643158999737352,0.05,true,banana,banana,occlusion,control,mask,partial viewing,many small,Stimulus\all_stim\occlusion\partialviewing\manysmall\control\manysmall_partialViewing_control_banana6.png,mask_img/000000033756.png,experiment,e,e,741.1974219999975
V3,12,18,Male,Left,225,Block 2,0.7695939999539405,0.025,true,cat,cat,occlusion,high,mask,partial viewing,few large,Stimulus\all_stim\occlusion\partialviewing\fewlarge\high\fewlarge_partialViewing_high_cat3.png,mask_img/000000017356.png,experiment,u,u,742.8853791999863
V3,12,18,Male,Left,226,Block 2,0.8996563999680802,0.025,true,person,person,occlusion,control,mask,partial viewing,many small,Stimulus\all_stim\occlusion\partialviewing\manysmall\control\manysmall_partialViewing_control_person1.png,mask_img/000000039656.png,experiment,w,w,744.86153439997
V3,12,18,Male,Left,227,Block 2,0.9607475000084378,0.025,true,cat,cat,occlusion,control,mask,partial viewing,few large,Stimulus\all_stim\occlusion\partialviewing\fewlarge\control\fewlarge_partialViewing_control_cat7.png,mask_img/000000007325.png,experiment,u,u,746.5658134999685
V3,12,18,Male,Left,228,Block 2,0.7353911999962293,0.1,true,tree,tree,occlusion,control,mask,partial viewing,many small,Stimulus\all_stim\occlusion\partialviewing\manysmall\control\manysmall_partialViewing_control_tree6.png,mask_img/000000041272.png,experiment,q,q,748.4294194999966
V3,12,18,Male,Left,229,Block 2,0.9629814000218175,0.025,true,person,person,occlusion,high,mask,partial viewing,few large,Stimulus\all_stim\occlusion\partialviewing\fewlarge\high\fewlarge_partialViewing_high_person7.png,mask_img/000000020421.png,experiment,w,w,750.494266099995
V3,12,18,Male,Left,230,Block 2,2.0407525000046007,0.05,false,cat,banana,occlusion,low,mask,partial viewing,few large,Stimulus\all_stim\occlusion\partialviewing\fewlarge\low\fewlarge_partialViewing_low_cat3.png,mask_img/000000027556.png,experiment,e,u,753.197483099997
V3,12,18,Male,Left,231,Block 2,0.824546999996528,0.05,true,tree,tree,occlusion,low,mask,partial viewing,many small,Stimulus\all_stim\occlusion\partialviewing\manysmall\low\manysmall_partialViewing_low_tree4.png,mask_img/000000063337.png,experiment,q,q,754.8938311999664
V3,12,18,Male,Left,232,Block 2,1.34183980000671,0.025,true,cat,cat,occlusion,control,mask,partial viewing,many small,Stimulus\all_stim\occlusion\partialviewing\manysmall\control\manysmall_partialViewing_control_cat6.png,mask_img/000000038753.png,experiment,u,u,757.3417568999575
V3,12,18,Male,Left,233,Block 2,0.8546979000093415,0.025,true,tree,tree,occlusion,high,mask,partial viewing,many small,Stimulus\all_stim\occlusion\partialviewing\manysmall\high\manysmall_partialViewing_high_tree1.png,mask_img/000000052784.png,experiment,q,q,759.1336002000025
V3,12,18,Male,Left,234,Block 2,0.7423413000069559,0.1,true,person,person,occlusion,control,mask,partial viewing,few large,Stimulus\all_stim\occlusion\partialviewing\fewlarge\control\fewlarge_partialViewing_control_person5.png,mask_img/000000009286.png,experiment,w,w,760.6458810999757
V3,12,18,Male,Left,235,Block 2,0.7116901999688707,0.05,true,tree,tree,occlusion,high,mask,partial viewing,many small,Stimulus\all_stim\occlusion\partialviewing\manysmall\high\manysmall_partialViewing_high_tree6.png,mask_img/000000053539.png,experiment,q,q,762.4857044999953
V3,12,18,Male,Left,236,Block 2,0.7373230999801308,0.05,true,bus,bus,occlusion,high,mask,partial viewing,few large,Stimulus\all_stim\occlusion\partialviewing\fewlarge\high\fewlarge_partialViewing_high_bus10.png,mask_img/000000015733.png,experiment,p,p,763.9494998999871
V3,12,18,Male,Left,237,Block 2,0.8685487000038847,0.1,true,person,person,occlusion,low,mask,partial viewing,few large,Stimulus\all_stim\occlusion\partialviewing\fewlarge\low\fewlarge_partialViewing_low_person7.png,mask_img/000000030526.png,experiment,w,w,765.5256480999524
V3,12,18,Male,Left,238,Block 2,0.7507899000192992,0.05,false,firehydrant,person,occlusion,low,mask,partial viewing,many small,Stimulus\all_stim\occlusion\partialviewing\manysmall\low\manysmall_partialViewing_low_firehydrant1.png,mask_img/000000060464.png,experiment,w,o,767.2455443999497
V3,12,18,Male,Left,239,Block 2,0.7656859999988228,0.025,false,firehydrant,person,occlusion,high,mask,partial viewing,many small,Stimulus\all_stim\occlusion\partialviewing\manysmall\high\manysmall_partialViewing_high_firehydrant5.png,mask_img/000000050496.png,experiment,w,o,769.0697158999974
V3,12,18,Male,Left,240,Block 2,1.2579693999723531,0.1,true,person,person,occlusion,control,mask,partial viewing,many small,Stimulus\all_stim\occlusion\partialviewing\manysmall\control\manysmall_partialViewing_control_person4.png,mask_img/000000040042.png,experiment,w,w,771.2541062999517
V3,12,18,Male,Left,241,Block 2,0.7857338999747299,0.05,true,cat,cat,occlusion,control,mask,partial viewing,many small,Stimulus\all_stim\occlusion\partialviewing\manysmall\control\manysmall_partialViewing_control_cat10.png,mask_img/000000038178.png,experiment,u,u,773.1375106999767
V3,12,18,Male,Left,242,Block 2,0.5909020000253804,0.025,true,person,person,occlusion,low,mask,partial viewing,few large,Stimulus\all_stim\occlusion\partialviewing\fewlarge\low\fewlarge_partialViewing_low_person2.png,mask_img/000000029274.png,experiment,w,w,774.8712337999605
V3,12,18,Male,Left,243,Block 2,1.7148275999934413,0.1,false,firehydrant,person,occlusion,high,mask,partial viewing,many small,Stimulus\all_stim\occlusion\partialviewing\manysmall\high\manysmall_partialViewing_high_firehydrant4.png,mask_img/000000050412.png,experiment,w,o,777.717860899982
V3,12,18,Male,Left,244,Block 2,1.0934333999757655,0.05,true,cat,cat,occlusion,high,mask,partial viewing,many small,Stimulus\all_stim\occlusion\partialviewing\manysmall\high\manysmall_partialViewing_high_cat5.png,mask_img/000000049428.png,experiment,u,u,779.5336853999761
V3,12,18,Male,Left,245,Block 2,0.5760105000226758,0.1,true,bird,bird,occlusion,control,mask,partial viewing,many small,Stimulus\all_stim\occlusion\partialviewing\manysmall\control\manysmall_partialViewing_control_bird2.png,mask_img/000000034455.png,experiment,r,r,780.7903320000041
V3,12,18,Male,Left,246,Block 2,1.1067610000027344,0.1,true,firehydrant,firehydrant,occlusion,low,mask,partial viewing,many small,Stimulus\all_stim\occlusion\partialviewing\manysmall\low\manysmall_partialViewing_low_firehydrant3.png,mask_img/000000060572.png,experiment,o,o,782.5738568999805
V3,12,18,Male,Left,247,Block 2,1.8840399000328034,0.1,true,cat,cat,occlusion,high,mask,partial viewing,many small,Stimulus\all_stim\occlusion\partialviewing\manysmall\high\manysmall_partialViewing_high_cat8.png,mask_img/000000049763.png,experiment,u,u,785.3657567999908
V3,12,18,Male,Left,248,Block 2,1.2098918000119738,0.1,true,firehydrant,firehydrant,occlusion,low,mask,partial viewing,many small,Stimulus\all_stim\occlusion\partialviewing\manysmall\low\manysmall_partialViewing_low_firehydrant6.png,mask_img/000000060647.png,experiment,o,o,787.3097164999926
V3,12,18,Male,Left,249,Block 2,0.6647330999840051,0.025,true,firehydrant,firehydrant,occlusion,control,mask,partial viewing,few large,Stimulus\all_stim\occlusion\partialviewing\fewlarge\control\fewlarge_partialViewing_control_firehydrant6.png,mask_img/000000008025.png,experiment,o,o,789.0218071999843
V3,12,18,Male,Left,250,Block 2,1.7010842000017874,0.025,true,firehydrant,firehydrant,occlusion,high,mask,partial viewing,few large,Stimulus\all_stim\occlusion\partialviewing\fewlarge\high\fewlarge_partialViewing_high_firehydrant2.png,mask_img/000000018743.png,experiment,o,o,791.7414263999672
V3,12,18,Male,Left,251,Block 2,0.6755085999611765,0.05,true,bus,bus,occlusion,control,mask,partial viewing,few large,Stimulus\all_stim\occlusion\partialviewing\fewlarge\control\fewlarge_partialViewing_control_bus3.png,mask_img/000000005418.png,experiment,p,p,793.3734587999643
V3,12,18,Male,Left,252,Block 2,1.0169869000092149,0.1,true,bird,bird,occlusion,high,mask,partial viewing,many small,Stimulus\all_stim\occlusion\partialviewing\manysmall\high\manysmall_partialViewing_high_bird7.png,mask_img/000000044580.png,experiment,r,r,795.1978246999788
V3,12,18,Male,Left,253,Block 2,2.1490784999914467,0.025,false,cat,tree,occlusion,low,mask,partial viewing,many small,Stimulus\all_stim\occlusion\partialviewing\manysmall\low\manysmall_partialViewing_low_cat1.png,mask_img/000000059036.png,experiment,q,u,798.4459275999689
V3,12,18,Male,Left,254,Block 2,1.1231259999913163,0.1,true,bus,bus,occlusion,high,mask,partial viewing,few large,Stimulus\all_stim\occlusion\partialviewing\fewlarge\high\fewlarge_partialViewing_high_bus10.png,mask_img/000000015733.png,experiment,p,p,800.557988799992
V3,12,18,Male,Left,255,Block 2,0.7827389999874867,0.1,true,person,person,occlusion,high,mask,partial viewing,few large,Stimulus\all_stim\occlusion\partialviewing\fewlarge\high\fewlarge_partialViewing_high_person2.png,mask_img/000000019932.png,experiment,w,w,802.4536919999518
V3,12,18,Male,Left,256,Block 2,0.7281683000037447,0.1,false,firehydrant,person,occlusion,high,mask,partial viewing,many small,Stimulus\all_stim\occlusion\partialviewing\manysmall\high\manysmall_partialViewing_high_firehydrant10.png,mask_img/000000050148.png,experiment,w,o,804.2462119999691
V3,12,18,Male,Left,257,Block 2,1.2156388000003062,0.1,true,tree,tree,occlusion,high,mask,partial viewing,many small,Stimulus\all_stim\occlusion\partialviewing\manysmall\high\manysmall_partialViewing_high_tree9.png,mask_img/000000054336.png,experiment,q,q,806.2866954999627
V3,12,18,Male,Left,258,Block 2,0.8796784000005573,0.05,true,bird,bird,occlusion,high,mask,partial viewing,few large,Stimulus\all_stim\occlusion\partialviewing\fewlarge\high\fewlarge_partialViewing_high_bird10.png,mask_img/000000013127.png,experiment,r,r,808.0056102999952
V3,12,18,Male,Left,259,Block 2,0.902711000002455,0.1,true,person,person,occlusion,high,mask,partial viewing,few large,Stimulus\all_stim\occlusion\partialviewing\fewlarge\high\fewlarge_partialViewing_high_person3.png,mask_img/000000020147.png,experiment,w,w,809.8537345999503
V3,12,18,Male,Left,260,Block 2,0.7854527999879792,0.1,true,tree,tree,occlusion,control,mask,partial viewing,few large,Stimulus\all_stim\occlusion\partialviewing\fewlarge\control\fewlarge_partialViewing_control_tree8.png,mask_img/000000011544.png,experiment,q,q,811.4058165999595
V3,12,18,Male,Left,261,Block 2,1.0238390000304207,0.025,true,bird,bird,occlusion,high,mask,partial viewing,few large,Stimulus\all_stim\occlusion\partialviewing\fewlarge\high\fewlarge_partialViewing_high_bird7.png,mask_img/000000013949.png,experiment,r,r,813.2698208999936
V3,12,18,Male,Left,262,Block 2,0.9238066999823786,0.05,true,firehydrant,firehydrant,occlusion,low,mask,partial viewing,few large,Stimulus\all_stim\occlusion\partialviewing\fewlarge\low\fewlarge_partialViewing_low_firehydrant6.png,mask_img/000000028842.png,experiment,o,o,815.0456293000025
V3,12,18,Male,Left,263,Block 2,0.907501699985005,0.05,true,person,person,occlusion,low,mask,partial viewing,many small,Stimulus\all_stim\occlusion\partialviewing\manysmall\low\manysmall_partialViewing_low_person4.png,mask_img/000000062131.png,experiment,w,w,816.7656282999669
V3,12,18,Male,Left,264,Block 2,1.4043809000286274,0.1,true,banana,banana,occlusion,low,mask,partial viewing,few large,Stimulus\all_stim\occlusion\partialviewing\fewlarge\low\fewlarge_partialViewing_low_banana5.png,mask_img/000000023100.png,experiment,e,e,819.2460297999787
V3,12,18,Male,Left,265,Block 2,1.5812206999980845,0.025,false,bird,tree,occlusion,high,mask,partial viewing,many small,Stimulus\all_stim\occlusion\partialviewing\manysmall\high\manysmall_partialViewing_high_bird10.png,mask_img/000000044065.png,experiment,q,r,821.5336073999642
V3,12,18,Male,Left,266,Block 2,0.8972436999902129,0.1,true,cat,cat,occlusion,high,mask,partial viewing,few large,Stimulus\all_stim\occlusion\partialviewing\fewlarge\high\fewlarge_partialViewing_high_cat4.png,mask_img/000000017364.png,experiment,u,u,823.0937935999827
V3,12,18,Male,Left,267,Block 2,2.0252568999421783,0.1,true,building,building,occlusion,low,mask,partial viewing,many small,Stimulus\all_stim\occlusion\partialviewing\manysmall\low\manysmall_partialViewing_low_building4.png,mask_img/000000057782.png,experiment,i,i,826.1976717999787
V3,12,18,Male,Left,268,Block 2,0.957782200013753,0.1,true,bus,bus,occlusion,control,mask,partial viewing,few large,Stimulus\all_stim\occlusion\partialviewing\fewlarge\control\fewlarge_partialViewing_control_bus1.png,mask_img/000000005142.png,experiment,p,p,827.8696799000027
V3,12,18,Male,Left,269,Block 2,1.0090258999844082,0.1,true,firehydrant,firehydrant,occlusion,high,mask,partial viewing,few large,Stimulus\all_stim\occlusion\partialviewing\fewlarge\high\fewlarge_partialViewing_high_firehydrant3.png,mask_img/000000018864.png,experiment,o,o,829.9580619999906
V3,12,18,Male,Left,270,Block 2,2.053483599971514,0.05,false,tree,building,occlusion,control,mask,partial viewing,many small,Stimulus\all_stim\occlusion\partialviewing\manysmall\control\manysmall_partialViewing_control_tree2.png,mask_img/000000041008.png,experiment,i,q,833.0536755999783
V3,12,18,Male,Left,271,Block 2,1.4571135999867693,0.025,true,tree,tree,occlusion,low,mask,partial viewing,few large,Stimulus\all_stim\occlusion\partialviewing\fewlarge\low\fewlarge_partialViewing_low_tree6.png,mask_img/000000032720.png,experiment,q,q,835.1741356999846
V3,12,18,Male,Left,272,Block 2,0.792485999991186,0.05,true,tree,tree,occlusion,high,mask,partial viewing,few large,Stimulus\all_stim\occlusion\partialviewing\fewlarge\high\fewlarge_partialViewing_high_tree4.png,mask_img/000000021981.png,experiment,q,q,836.9177800999605
V3,12,18,Male,Left,273,Block 2,1.7128019999945536,0.025,true,banana,banana,occlusion,low,mask,partial viewing,many small,Stimulus\all_stim\occlusion\partialviewing\manysmall\low\manysmall_partialViewing_low_banana4.png,mask_img/000000055202.png,experiment,e,e,839.7497722999542
V3,12,18,Male,Left,274,Block 2,0.7228194999624975,0.025,true,bird,bird,occlusion,control,mask,partial viewing,few large,Stimulus\all_stim\occlusion\partialviewing\fewlarge\control\fewlarge_partialViewing_control_bird10.png,mask_img/000000001053.png,experiment,r,r,841.50191609998
V3,12,18,Male,Left,275,Block 2,1.7148292000056244,0.1,true,cat,cat,occlusion,control,mask,partial viewing,many small,Stimulus\all_stim\occlusion\partialviewing\manysmall\control\manysmall_partialViewing_control_cat1.png,mask_img/000000038177.png,experiment,u,u,844.3498341999948
V3,12,18,Male,Left,276,Block 2,0.8028535000048578,0.1,true,bus,bus,occlusion,control,mask,partial viewing,many small,Stimulus\all_stim\occlusion\partialviewing\manysmall\control\manysmall_partialViewing_control_bus8.png,mask_img/000000037782.png,experiment,p,p,845.9018376999884
V3,12,18,Male,Left,277,Block 2,0.7649103999719955,0.1,true,tree,tree,occlusion,control,mask,partial viewing,many small,Stimulus\all_stim\occlusion\partialviewing\manysmall\control\manysmall_partialViewing_control_tree1.png,mask_img/000000040886.png,experiment,q,q,847.7417416999815
V3,12,18,Male,Left,278,Block 2,1.6649171000462957,0.1,true,bus,bus,occlusion,low,mask,partial viewing,many small,Stimulus\all_stim\occlusion\partialviewing\manysmall\low\manysmall_partialViewing_low_bus2.png,mask_img/000000058627.png,experiment,p,p,850.1579386999947
V3,12,18,Male,Left,279,Block 2,0.9947090999921784,0.025,true,building,building,occlusion,control,mask,partial viewing,few large,Stimulus\all_stim\occlusion\partialviewing\fewlarge\control\fewlarge_partialViewing_control_building4.png,mask_img/000000004239.png,experiment,i,i,851.8456798999687
V3,12,18,Male,Left,280,Block 2,0.8371841000043787,0.05,true,banana,banana,occlusion,high,mask,partial viewing,few large,Stimulus\all_stim\occlusion\partialviewing\fewlarge\high\fewlarge_partialViewing_high_banana9.png,mask_img/000000012999.png,experiment,e,e,853.7339887999697
V3,12,18,Male,Left,281,Block 2,0.8001886999700218,0.1,true,bus,bus,occlusion,low,mask,partial viewing,many small,Stimulus\all_stim\occlusion\partialviewing\manysmall\low\manysmall_partialViewing_low_bus4.png,mask_img/000000058701.png,experiment,p,p,855.5576037999708
V3,12,18,Male,Left,282,Block 2,0.8412027999875136,0.025,true,firehydrant,firehydrant,occlusion,control,mask,partial viewing,many small,Stimulus\all_stim\occlusion\partialviewing\manysmall\control\manysmall_partialViewing_control_firehydrant2.png,mask_img/000000039089.png,experiment,o,o,857.3337583999964
V3,12,18,Male,Left,283,Block 2,4.477944599988405,0.025,false,tree,firehydrant,occlusion,high,mask,partial viewing,few large,Stimulus\all_stim\occlusion\partialviewing\fewlarge\high\fewlarge_partialViewing_high_tree8.png,mask_img/000000022355.png,experiment,o,q,862.8152543999604
V3,12,18,Male,Left,284,Block 2,0.8000898999744095,0.1,false,building,cat,occlusion,high,mask,partial viewing,many small,Stimulus\all_stim\occlusion\partialviewing\manysmall\high\manysmall_partialViewing_high_building1.png,mask_img/000000044950.png,experiment,u,i,864.7498820999754
V3,12,18,Male,Left,285,Block 2,0.680381899990607,0.05,true,bus,bus,occlusion,low,mask,partial viewing,many small,Stimulus\all_stim\occlusion\partialviewing\manysmall\low\manysmall_partialViewing_low_bus4.png,mask_img/000000058701.png,experiment,p,p,866.1176216999884
V3,12,18,Male,Left,286,Block 2,1.5653783000307158,0.025,true,cat,cat,occlusion,control,mask,partial viewing,few large,Stimulus\all_stim\occlusion\partialviewing\fewlarge\control\fewlarge_partialViewing_control_cat5.png,mask_img/000000006870.png,experiment,u,u,868.5747582999757
V3,12,18,Male,Left,287,Block 2,0.8370675999904051,0.1,true,building,building,occlusion,low,mask,partial viewing,many small,Stimulus\all_stim\occlusion\partialviewing\manysmall\low\manysmall_partialViewing_low_building7.png,mask_img/000000058021.png,experiment,i,i,870.0941132999724
V3,12,18,Male,Left,288,Block 2,1.1713185000116937,0.05,true,banana,banana,occlusion,control,mask,partial viewing,few large,Stimulus\all_stim\occlusion\partialviewing\fewlarge\control\fewlarge_partialViewing_control_banana3.png,mask_img/000000000394.png,experiment,e,e,895.678019199986
V3,12,18,Male,Left,289,Block 3,0.7533304000389762,0.025,true,firehydrant,firehydrant,occlusion,low,mask,partial viewing,few large,Stimulus\all_stim\occlusion\partialviewing\fewlarge\low\fewlarge_partialViewing_low_firehydrant9.png,mask_img/000000029056.png,experiment,o,o,897.341816799948
V3,12,18,Male,Left,290,Block 3,1.2311982999672182,0.025,true,cat,cat,occlusion,control,mask,partial viewing,few large,Stimulus\all_stim\occlusion\partialviewing\fewlarge\control\fewlarge_partialViewing_control_cat1.png,mask_img/000000006437.png,experiment,u,u,899.4138182000024
V3,12,18,Male,Left,291,Block 3,0.8797047999687493,0.1,true,tree,tree,occlusion,high,mask,partial viewing,few large,Stimulus\all_stim\occlusion\partialviewing\fewlarge\high\fewlarge_partialViewing_high_tree1.png,mask_img/000000021206.png,experiment,q,q,900.9583992999978
V3,12,18,Male,Left,292,Block 3,0.7067512000212446,0.025,true,tree,tree,occlusion,low,mask,partial viewing,many small,Stimulus\all_stim\occlusion\partialviewing\manysmall\low\manysmall_partialViewing_low_tree9.png,mask_img/000000063867.png,experiment,q,q,902.7495651999488
V3,12,18,Male,Left,293,Block 3,0.7952111000195146,0.1,true,person,person,occlusion,control,mask,partial viewing,many small,Stimulus\all_stim\occlusion\partialviewing\manysmall\control\manysmall_partialViewing_control_person10.png,mask_img/000000039778.png,experiment,w,w,904.3737975999829
V3,12,18,Male,Left,294,Block 3,1.726636299979873,0.05,true,building,building,occlusion,high,mask,partial viewing,many small,Stimulus\all_stim\occlusion\partialviewing\manysmall\high\manysmall_partialViewing_high_building6.png,mask_img/000000046155.png,experiment,i,i,907.2136780999717
V3,12,18,Male,Left,295,Block 3,0.8520352000487037,0.025,true,tree,tree,occlusion,control,mask,partial viewing,few large,Stimulus\all_stim\occlusion\partialviewing\fewlarge\control\fewlarge_partialViewing_control_tree2.png,mask_img/000000010560.png,experiment,q,q,908.9175235999865
V3,12,18,Male,Left,296,Block 3,2.6647143000154756,0.025,true,bird,bird,occlusion,low,mask,partial viewing,few large,Stimulus\all_stim\occlusion\partialviewing\fewlarge\low\fewlarge_partialViewing_low_bird6.png,mask_img/000000024247.png,experiment,r,r,912.3579917000025
V3,12,18,Male,Left,297,Block 3,1.1266666000010446,0.05,true,bus,bus,occlusion,low,mask,partial viewing,few large,Stimulus\all_stim\occlusion\partialviewing\fewlarge\low\fewlarge_partialViewing_low_bus7.png,mask_img/000000026720.png,experiment,p,p,914.597879799956
V3,12,18,Male,Left,298,Block 3,0.8311787999700755,0.05,false,firehydrant,tree,occlusion,high,mask,partial viewing,many small,Stimulus\all_stim\occlusion\partialviewing\manysmall\high\manysmall_partialViewing_high_firehydrant10.png,mask_img/000000050148.png,experiment,q,o,916.3656658999971
V3,12,18,Male,Left,299,Block 3,0.6216101999743842,0.05,true,person,person,occlusion,control,mask,partial viewing,few large,Stimulus\all_stim\occlusion\partialviewing\fewlarge\control\fewlarge_partialViewing_control_person10.png,mask_img/000000008469.png,experiment,w,w,917.7907102999743
V3,12,18,Male,Left,300,Block 3,1.5343726000282913,0.05,true,building,building,occlusion,low,mask,partial viewing,many small,Stimulus\all_stim\occlusion\partialviewing\manysmall\low\manysmall_partialViewing_low_building8.png,mask_img/000000058073.png,experiment,i,i,920.1977624999708
V3,12,18,Male,Left,301,Block 3,0.8287205999949947,0.025,true,tree,tree,occlusion,low,mask,partial viewing,many small,Stimulus\all_stim\occlusion\partialviewing\manysmall\low\manysmall_partialViewing_low_tree10.png,mask_img/000000062716.png,experiment,q,q,922.0859544999548
V3,12,18,Male,Left,302,Block 3,1.2677127000060864,0.025,false,banana,tree,occlusion,high,mask,partial viewing,few large,Stimulus\all_stim\occlusion\partialviewing\fewlarge\high\fewlarge_partialViewing_high_banana2.png,mask_img/000000012179.png,experiment,q,e,924.4456889999565
V3,12,18,Male,Left,303,Block 3,1.377410199958831,0.025,true,banana,banana,occlusion,high,mask,partial viewing,few large,Stimulus\all_stim\occlusion\partialviewing\fewlarge\high\fewlarge_partialViewing_high_banana6.png,mask_img/000000012548.png,experiment,e,e,926.9337541999994
V3,12,18,Male,Left,304,Block 3,1.27288420003606,0.1,true,bus,bus,occlusion,control,mask,partial viewing,few large,Stimulus\all_stim\occlusion\partialviewing\fewlarge\control\fewlarge_partialViewing_control_bus8.png,mask_img/000000006153.png,experiment,p,p,929.2220228999504
V3,12,18,Male,Left,305,Block 3,0.747548800020013,0.05,true,person,person,occlusion,low,mask,partial viewing,many small,Stimulus\all_stim\occlusion\partialviewing\manysmall\low\manysmall_partialViewing_low_person2.png,mask_img/000000061867.png,experiment,w,w,930.7418406999786
V3,12,18,Male,Left,306,Block 3,1.686232099949848,0.05,true,cat,cat,occlusion,low,mask,partial viewing,few large,Stimulus\all_stim\occlusion\partialviewing\fewlarge\low\fewlarge_partialViewing_low_cat2.png,mask_img/000000027371.png,experiment,u,u,933.2216867999523
V3,12,18,Male,Left,307,Block 3,0.746144600037951,0.05,true,building,building,occlusion,high,mask,partial viewing,many small,Stimulus\all_stim\occlusion\partialviewing\manysmall\high\manysmall_partialViewing_high_building9.png,mask_img/000000046345.png,experiment,i,i,934.8696508999565
V3,12,18,Male,Left,308,Block 3,0.5984528999542817,0.025,true,bus,bus,occlusion,control,mask,partial viewing,many small,Stimulus\all_stim\occlusion\partialviewing\manysmall\control\manysmall_partialViewing_control_bus9.png,mask_img/000000037864.png,experiment,p,p,936.2983621999738
V3,12,18,Male,Left,309,Block 3,0.8148428000276908,0.025,true,person,person,occlusion,low,mask,partial viewing,few large,Stimulus\all_stim\occlusion\partialviewing\fewlarge\low\fewlarge_partialViewing_low_person9.png,mask_img/000000031017.png,experiment,w,w,938.22961759998
V3,12,18,Male,Left,310,Block 3,0.923743299965281,0.025,true,cat,cat,occlusion,control,mask,partial viewing,few large,Stimulus\all_stim\occlusion\partialviewing\fewlarge\control\fewlarge_partialViewing_control_cat6.png,mask_img/000000007179.png,experiment,u,u,940.2457063999609
V3,12,18,Male,Left,311,Block 3,1.207220300042536,0.1,true,cat,cat,occlusion,low,mask,partial viewing,few large,Stimulus\all_stim\occlusion\partialviewing\fewlarge\low\fewlarge_partialViewing_low_cat6.png,mask_img/000000027764.png,experiment,u,u,942.4380506000016
V3,12,18,Male,Left,312,Block 3,0.8877009999705479,0.025,true,building,building,occlusion,control,mask,partial viewing,many small,Stimulus\all_stim\occlusion\partialviewing\manysmall\control\manysmall_partialViewing_control_building1.png,mask_img/000000035818.png,experiment,i,i,944.4295994999702
V3,12,18,Male,Left,313,Block 3,1.1862781000090763,0.1,true,building,building,occlusion,control,mask,partial viewing,many small,Stimulus\all_stim\occlusion\partialviewing\manysmall\control\manysmall_partialViewing_control_building5.png,mask_img/000000036004.png,experiment,i,i,946.7417294000043
V3,12,18,Male,Left,314,Block 3,1.4298355000209995,0.1,true,cat,cat,occlusion,high,mask,partial viewing,many small,Stimulus\all_stim\occlusion\partialviewing\manysmall\high\manysmall_partialViewing_high_cat2.png,mask_img/000000049092.png,experiment,u,u,949.0301537999767
V3,12,18,Male,Left,315,Block 3,0.9492366000195034,0.1,true,banana,banana,occlusion,control,mask,partial viewing,many small,Stimulus\all_stim\occlusion\partialviewing\manysmall\control\manysmall_partialViewing_control_banana6.png,mask_img/000000033756.png,experiment,e,e,950.6457723999629
V3,12,18,Male,Left,316,Block 3,1.060835899959784,0.025,false,cat,bird,occlusion,low,mask,partial viewing,few large,Stimulus\all_stim\occlusion\partialviewing\fewlarge\low\fewlarge_partialViewing_low_cat1.png,mask_img/000000027151.png,experiment,r,u,952.3896817999776
V3,12,18,Male,Left,317,Block 3,0.8062552000046708,0.1,true,bus,bus,occlusion,high,mask,partial viewing,many small,Stimulus\all_stim\occlusion\partialviewing\manysmall\high\manysmall_partialViewing_high_bus1.png,mask_img/000000046676.png,experiment,p,p,954.1337816999876
V3,12,18,Male,Left,318,Block 3,1.6879879000480287,0.025,true,person,person,occlusion,high,mask,partial viewing,many small,Stimulus\all_stim\occlusion\partialviewing\manysmall\high\manysmall_partialViewing_high_person10.png,mask_img/000000051453.png,experiment,w,w,956.477995299967
V3,12,18,Male,Left,319,Block 3,0.9814025000086986,0.025,true,bird,bird,occlusion,control,mask,partial viewing,few large,Stimulus\all_stim\occlusion\partialviewing\fewlarge\control\fewlarge_partialViewing_control_bird4.png,mask_img/000000001997.png,experiment,r,r,958.3978111000033
V3,12,18,Male,Left,320,Block 3,1.191499800013844,0.05,true,tree,tree,occlusion,control,mask,partial viewing,few large,Stimulus\all_stim\occlusion\partialviewing\fewlarge\control\fewlarge_partialViewing_control_tree6.png,mask_img/000000011328.png,experiment,q,q,960.3576311999932
V3,12,18,Male,Left,321,Block 3,1.8041302999481559,0.1,false,bird,person,occlusion,high,mask,partial viewing,many small,Stimulus\all_stim\occlusion\partialviewing\manysmall\high\manysmall_partialViewing_high_bird5.png,mask_img/000000044437.png,experiment,w,r,963.1257616999792
V3,12,18,Male,Left,322,Block 3,0.8237287999945693,0.05,true,firehydrant,firehydrant,occlusion,low,mask,partial viewing,many small,Stimulus\all_stim\occlusion\partialviewing\manysmall\low\manysmall_partialViewing_low_firehydrant5.png,mask_img/000000060623.png,experiment,o,o,964.6297203999711
V3,12,18,Male,Left,323,Block 3,0.8466377999866381,0.025,true,bus,bus,occlusion,low,mask,partial viewing,few large,Stimulus\all_stim\occlusion\partialviewing\fewlarge\low\fewlarge_partialViewing_low_bus1.png,mask_img/000000025820.png,experiment,p,p,966.1899070999934
V3,12,18,Male,Left,324,Block 3,1.3247640999616124,0.1,true,firehydrant,firehydrant,occlusion,low,mask,partial viewing,many small,Stimulus\all_stim\occlusion\partialviewing\manysmall\low\manysmall_partialViewing_low_firehydrant10.png,mask_img/000000060529.png,experiment,o,o,968.4139891999657
V3,12,18,Male,Left,325,Block 3,0.8829936000402085,0.05,true,bird,bird,occlusion,high,mask,partial viewing,few large,Stimulus\all_stim\occlusion\partialviewing\fewlarge\high\fewlarge_partialViewing_high_bird6.png,mask_img/000000013944.png,experiment,r,r,970.0297129999963
V3,12,18,Male,Left,326,Block 3,1.6656257000286132,0.1,true,building,building,occlusion,low,mask,partial viewing,few large,Stimulus\all_stim\occlusion\partialviewing\fewlarge\low\fewlarge_partialViewing_low_building5.png,mask_img/000000025034.png,experiment,i,i,972.3816665999475
V3,12,18,Male,Left,327,Block 3,0.8244112000102177,0.05,true,person,person,occlusion,high,mask,partial viewing,few large,Stimulus\all_stim\occlusion\partialviewing\fewlarge\high\fewlarge_partialViewing_high_person8.png,mask_img/000000020570.png,experiment,w,w,974.1817272999906
V3,12,18,Male,Left,328,Block 3,1.0716205000062473,0.05,true,banana,banana,occlusion,low,mask,partial viewing,many small,Stimulus\all_stim\occlusion\partialviewing\manysmall\low\manysmall_partialViewing_low_banana1.png,mask_img/000000054532.png,experiment,e,e,976.0456114999834
V3,12,18,Male,Left,329,Block 3,0.9373693999950774,0.1,true,banana,banana,occlusion,control,mask,partial viewing,few large,Stimulus\all_stim\occlusion\partialviewing\fewlarge\control\fewlarge_partialViewing_control_banana3.png,mask_img/000000000394.png,experiment,e,e,978.0140277000028
V3,12,18,Male,Left,330,Block 3,0.8976796999922954,0.1,true,firehydrant,firehydrant,occlusion,control,mask,partial viewing,few large,Stimulus\all_stim\occlusion\partialviewing\fewlarge\control\fewlarge_partialViewing_control_firehydrant9.png,mask_img/000000008329.png,experiment,o,o,980.0059116999619
V3,12,18,Male,Left,331,Block 3,0.8013941000099294,0.025,true,person,person,occlusion,control,mask,partial viewing,few large,Stimulus\all_stim\occlusion\partialviewing\fewlarge\control\fewlarge_partialViewing_control_person8.png,mask_img/000000009729.png,experiment,w,w,981.4935798999504
V3,12,18,Male,Left,332,Block 3,1.2121241000131704,0.05,true,cat,cat,occlusion,high,mask,partial viewing,few large,Stimulus\all_stim\occlusion\partialviewing\fewlarge\high\fewlarge_partialViewing_high_cat2.png,mask_img/000000017352.png,experiment,u,u,983.6457677999861
V3,12,18,Male,Left,333,Block 3,0.86842399998568,0.05,true,tree,tree,occlusion,high,mask,partial viewing,few large,Stimulus\all_stim\occlusion\partialviewing\fewlarge\high\fewlarge_partialViewing_high_tree8.png,mask_img/000000022355.png,experiment,q,q,985.3682052999502
V3,12,18,Male,Left,334,Block 3,1.210715599998366,0.05,true,building,building,occlusion,high,mask,partial viewing,few large,Stimulus\all_stim\occlusion\partialviewing\fewlarge\high\fewlarge_partialViewing_high_building5.png,mask_img/000000014759.png,experiment,i,i,987.7098856999655
V3,12,18,Male,Left,335,Block 3,0.9216210999875329,0.025,true,firehydrant,firehydrant,occlusion,high,mask,partial viewing,few large,Stimulus\all_stim\occlusion\partialviewing\fewlarge\high\fewlarge_partialViewing_high_firehydrant3.png,mask_img/000000018864.png,experiment,o,o,989.6953031999874
