Version,pt_num,Age,Gender,Handedness,trial_nbr,block_number,rt,soa,acc,category,choiced_category,manipulation,difficulty,mask,type_occl,size_occl,filename,mask_filename,task,pressed_key,correct_key,Experiment Duration
V3,24,24,Female,Right,1,Training,2.436962300009327,0.1,true,banana,banana,occlusion,low,mask,partial viewing,few large,Training_Stimulus\fewlarge_partialViewing_low_banana454.png,mask_img/000000002337.png,training,e,e,229.09120009999606
V3,24,24,Female,Right,2,Training,2.519016499980353,0.025,false,building,cat,occlusion,high,mask,partial viewing,few large,Training_Stimulus\fewlarge_partialViewing_high_building24.png,mask_img/000000000873.png,training,i,q,233.04485299999942
V3,24,24,Female,Right,3,Training,2.303810900019016,0.1,true,bus,bus,occlusion,low,mask,partial viewing,many small,Training_Stimulus\manysmall_partialViewing_low_bus180.png,mask_img/000000006709.png,training,w,w,236.92100140001276
V3,24,24,Female,Right,4,Training,2.8222690999973565,0.025,false,banana,bus,occlusion,high,mask,partial viewing,many small,Training_Stimulus\manysmall_partialViewing_high_banana454.png,mask_img/000000005359.png,training,w,e,241.0108344000182
V3,24,24,Female,Right,5,Training,1.6607310999825131,0.1,false,cat,person,occlusion,low,mask,partial viewing,many small,Training_Stimulus\manysmall_partialViewing_low_cat432.png,mask_img/000000006842.png,training,o,i,243.82297150001978
V3,24,24,Female,Right,6,Training,3.558817999990424,0.025,false,tree,cat,occlusion,low,mask,partial viewing,many small,Training_Stimulus\manysmall_partialViewing_low_tree9.png,mask_img/000000007325.png,training,i,r,248.85577029999695
V3,24,24,Female,Right,7,Training,1.0624012000043876,0.05,true,building,building,occlusion,control,mask,partial viewing,many small,Training_Stimulus\manysmall_partialViewing_control_building24.png,mask_img/000000004739.png,training,q,q,251.38692300001276
V3,24,24,Female,Right,8,Training,2.9426630999951158,0.025,false,firehydrant,banana,occlusion,high,mask,partial viewing,many small,Training_Stimulus\manysmall_partialViewing_high_firehydrant90.png,mask_img/000000006146.png,training,e,p,255.54523670001072
V3,24,24,Female,Right,9,Training,0.7943527000024915,0.1,true,building,building,occlusion,high,mask,partial viewing,few large,Training_Stimulus\fewlarge_partialViewing_high_building24.png,mask_img/000000000873.png,training,q,q,257.5760061000183
V3,24,24,Female,Right,10,Training,1.744118399976287,0.025,true,banana,banana,occlusion,low,mask,partial viewing,few large,Training_Stimulus\fewlarge_partialViewing_low_banana454.png,mask_img/000000002337.png,training,e,e,260.43532790002064
V3,24,24,Female,Right,11,Training,0.7232844999816734,0.05,true,building,building,occlusion,low,mask,partial viewing,few large,Training_Stimulus\fewlarge_partialViewing_low_building24.png,mask_img/000000002822.png,training,q,q,262.62249520001933
V3,24,24,Female,Right,12,Training,1.464302200009115,0.025,false,cat,person,occlusion,control,mask,partial viewing,many small,Training_Stimulus\manysmall_partialViewing_control_cat432.png,mask_img/000000005105.png,training,o,i,265.27907920000143
V3,24,24,Female,Right,13,Training,2.4864842999959365,0.1,false,banana,person,occlusion,low,mask,partial viewing,many small,Training_Stimulus\manysmall_partialViewing_low_banana454.png,mask_img/000000006437.png,training,o,e,269.2163894000114
V3,24,24,Female,Right,14,Training,1.3153091999993194,0.05,true,firehydrant,firehydrant,occlusion,control,mask,partial viewing,many small,Training_Stimulus\manysmall_partialViewing_control_firehydrant90.png,mask_img/000000005131.png,training,p,p,272.0615649000101
V3,24,24,Female,Right,15,Training,1.9790332000120543,0.1,true,bird,bird,occlusion,high,mask,partial viewing,many small,Training_Stimulus\manysmall_partialViewing_high_bird4.png,mask_img/000000005418.png,training,u,u,275.6088620000228
V3,24,24,Female,Right,16,Training,1.140695699985372,0.025,true,firehydrant,firehydrant,occlusion,high,mask,partial viewing,few large,Training_Stimulus\fewlarge_partialViewing_high_firehydrant90.png,mask_img/000000001810.png,training,p,p,278.18658239999786
V3,24,24,Female,Right,17,Training,2.135391799994977,0.025,false,person,bus,occlusion,high,mask,partial viewing,many small,Training_Stimulus\manysmall_partialViewing_high_person189.png,mask_img/000000006153.png,training,w,o,281.6553370000038
V3,24,24,Female,Right,18,Training,1.3769925000087824,0.1,true,bus,bus,occlusion,control,mask,partial viewing,many small,Training_Stimulus\manysmall_partialViewing_control_bus180.png,mask_img/000000004936.png,training,w,w,284.4523191000044
V3,24,24,Female,Right,19,Training,1.326489400002174,0.05,false,person,cat,occlusion,low,mask,partial viewing,many small,Training_Stimulus\manysmall_partialViewing_low_person189.png,mask_img/000000007179.png,training,i,o,287.31455670000287
V3,24,24,Female,Right,20,Training,0.9664827999949921,0.025,true,bird,bird,occlusion,control,mask,partial viewing,few large,Training_Stimulus\fewlarge_partialViewing_control_bird4.png,mask_img/000000000109.png,training,u,u,289.84460810001474
V3,24,24,Female,Right,21,Training,1.4846606999926735,0.05,true,bus,bus,occlusion,high,mask,partial viewing,many small,Training_Stimulus\manysmall_partialViewing_high_bus180.png,mask_img/000000005615.png,training,w,w,292.891391400015
V3,24,24,Female,Right,22,Training,1.136898900003871,0.05,true,bus,bus,occlusion,high,mask,partial viewing,few large,Training_Stimulus\fewlarge_partialViewing_high_bus180.png,mask_img/000000001053.png,training,w,w,295.5200557000062
V3,24,24,Female,Right,23,Training,1.386686899990309,0.1,false,bird,cat,occlusion,high,mask,partial viewing,few large,Training_Stimulus\fewlarge_partialViewing_high_bird4.png,mask_img/000000000731.png,training,i,u,298.1441338000004
V3,24,24,Female,Right,24,Training,1.7445911999966484,0.05,false,tree,person,occlusion,high,mask,partial viewing,few large,Training_Stimulus\fewlarge_partialViewing_high_tree9.png,mask_img/000000002197.png,training,o,r,301.2566307000234
V3,24,24,Female,Right,25,Training,2.0365229999879375,0.1,true,tree,tree,occlusion,high,mask,partial viewing,many small,Training_Stimulus\manysmall_partialViewing_high_tree9.png,mask_img/000000006263.png,training,r,r,304.428888000024
V3,24,24,Female,Right,26,Training,1.5441463000024669,0.05,false,bird,tree,occlusion,high,mask,partial viewing,few large,Training_Stimulus\fewlarge_partialViewing_high_bird4.png,mask_img/000000000731.png,training,r,u,307.16450320000877
V3,24,24,Female,Right,27,Training,1.6296149999834597,0.1,false,person,bird,occlusion,high,mask,partial viewing,many small,Training_Stimulus\manysmall_partialViewing_high_person189.png,mask_img/000000006153.png,training,u,o,310.19573930001934
V3,24,24,Female,Right,28,Training,1.0351277000154369,0.1,true,firehydrant,firehydrant,occlusion,high,mask,partial viewing,few large,Training_Stimulus\fewlarge_partialViewing_high_firehydrant90.png,mask_img/000000001810.png,training,p,p,312.41431020002346
V3,24,24,Female,Right,29,Training,0.9250072999857366,0.05,true,firehydrant,firehydrant,occlusion,control,mask,partial viewing,few large,Training_Stimulus\fewlarge_partialViewing_control_firehydrant90.png,mask_img/000000000459.png,training,p,p,314.5078671000083
V3,24,24,Female,Right,30,Training,1.350443000002997,0.1,true,person,person,occlusion,control,mask,partial viewing,many small,Training_Stimulus\manysmall_partialViewing_control_person189.png,mask_img/000000005142.png,training,o,o,317.2288976999989
V3,24,24,Female,Right,31,Training,1.3933182999899145,0.1,true,bus,bus,occlusion,low,mask,partial viewing,few large,Training_Stimulus\fewlarge_partialViewing_low_bus180.png,mask_img/000000002892.png,training,w,w,319.8375491000188
V3,24,24,Female,Right,32,Training,1.5537967999989633,0.025,true,tree,tree,occlusion,control,mask,partial viewing,few large,Training_Stimulus\fewlarge_partialViewing_control_tree9.png,mask_img/000000000626.png,training,r,r,322.58723050000845
V3,24,24,Female,Right,33,Training,1.631766400008928,0.025,false,cat,tree,occlusion,high,mask,partial viewing,many small,Training_Stimulus\manysmall_partialViewing_high_cat432.png,mask_img/000000005862.png,training,r,i,325.5572815000196
V3,24,24,Female,Right,34,Training,1.860499600006733,0.1,true,banana,banana,occlusion,high,mask,partial viewing,few large,Training_Stimulus\fewlarge_partialViewing_high_banana454.png,mask_img/000000000690.png,training,e,e,328.6044103000022
V3,24,24,Female,Right,35,Training,1.0880615999922156,0.05,true,firehydrant,firehydrant,occlusion,low,mask,partial viewing,many small,Training_Stimulus\manysmall_partialViewing_low_firehydrant90.png,mask_img/000000006870.png,training,p,p,331.15897920000134
V3,24,24,Female,Right,36,Training,1.2827981000009459,0.1,true,bus,bus,occlusion,high,mask,partial viewing,few large,Training_Stimulus\fewlarge_partialViewing_high_bus180.png,mask_img/000000001053.png,training,w,w,333.846488900017
V3,24,24,Female,Right,37,Training,1.2051974999776576,0.025,true,person,person,occlusion,control,mask,partial viewing,many small,Training_Stimulus\manysmall_partialViewing_control_person189.png,mask_img/000000005142.png,training,o,o,336.5496199000045
V3,24,24,Female,Right,38,Training,0.9564912999921944,0.1,true,firehydrant,firehydrant,occlusion,control,mask,partial viewing,many small,Training_Stimulus\manysmall_partialViewing_control_firehydrant90.png,mask_img/000000005131.png,training,p,p,338.9087157000031
V3,24,24,Female,Right,39,Training,1.4443518000189215,0.1,true,tree,tree,occlusion,low,mask,partial viewing,many small,Training_Stimulus\manysmall_partialViewing_low_tree9.png,mask_img/000000007325.png,training,r,r,341.73853210001835
V3,24,24,Female,Right,40,Training,1.205324600014137,0.05,true,bus,bus,occlusion,low,mask,partial viewing,many small,Training_Stimulus\manysmall_partialViewing_low_bus180.png,mask_img/000000006709.png,training,w,w,344.3318702999968
V3,24,24,Female,Right,41,Training,1.010720799997216,0.1,true,bus,bus,occlusion,high,mask,partial viewing,many small,Training_Stimulus\manysmall_partialViewing_high_bus180.png,mask_img/000000005615.png,training,w,w,346.45680970000103
V3,24,24,Female,Right,1,Block 1,1.1274836000229698,0.05,true,bus,bus,occlusion,high,mask,partial viewing,many small,Stimulus\all_stim\occlusion\partialviewing\manysmall\high\manysmall_partialViewing_high_bus2.png,mask_img/000000046852.png,experiment,w,w,388.64687419999973
V3,24,24,Female,Right,2,Block 1,1.700240699981805,0.025,true,tree,tree,occlusion,low,mask,partial viewing,few large,Stimulus\all_stim\occlusion\partialviewing\fewlarge\low\fewlarge_partialViewing_low_tree8.png,mask_img/000000032918.png,experiment,r,r,391.14265250001336
V3,24,24,Female,Right,3,Block 1,1.9230199000157882,0.025,false,bird,cat,occlusion,low,mask,partial viewing,many small,Stimulus\all_stim\occlusion\partialviewing\manysmall\low\manysmall_partialViewing_low_bird1.png,mask_img/000000055694.png,experiment,i,u,393.82217749999836
V3,24,24,Female,Right,4,Block 1,1.847269200021401,0.1,false,person,bird,occlusion,control,mask,partial viewing,few large,Stimulus\all_stim\occlusion\partialviewing\fewlarge\control\fewlarge_partialViewing_control_person6.png,mask_img/000000009469.png,experiment,u,o,396.4859615000023
V3,24,24,Female,Right,5,Block 1,1.3349035999854095,0.025,true,person,person,occlusion,control,mask,partial viewing,few large,Stimulus\all_stim\occlusion\partialviewing\fewlarge\control\fewlarge_partialViewing_control_person3.png,mask_img/000000008920.png,experiment,o,o,398.7187236000027
V3,24,24,Female,Right,6,Block 1,1.7592703999835066,0.025,true,bird,bird,occlusion,control,mask,partial viewing,few large,Stimulus\all_stim\occlusion\partialviewing\fewlarge\control\fewlarge_partialViewing_control_bird6.png,mask_img/000000002337.png,experiment,u,u,401.43894120000186
V3,24,24,Female,Right,7,Block 1,1.7521592999983113,0.025,false,cat,tree,occlusion,high,mask,partial viewing,many small,Stimulus\all_stim\occlusion\partialviewing\manysmall\high\manysmall_partialViewing_high_cat3.png,mask_img/000000049254.png,experiment,r,i,404.1346601000114
V3,24,24,Female,Right,8,Block 1,1.5307632999902125,0.1,true,bus,bus,occlusion,high,mask,partial viewing,few large,Stimulus\all_stim\occlusion\partialviewing\fewlarge\high\fewlarge_partialViewing_high_bus6.png,mask_img/000000015987.png,experiment,w,w,406.7259837000165
V3,24,24,Female,Right,9,Block 1,1.9659365999978036,0.025,true,cat,cat,occlusion,low,mask,partial viewing,few large,Stimulus\all_stim\occlusion\partialviewing\fewlarge\low\fewlarge_partialViewing_low_cat6.png,mask_img/000000027764.png,experiment,i,i,409.4387201000063
V3,24,24,Female,Right,10,Block 1,1.7083594999858178,0.1,true,tree,tree,occlusion,high,mask,partial viewing,few large,Stimulus\all_stim\occlusion\partialviewing\fewlarge\high\fewlarge_partialViewing_high_tree9.png,mask_img/000000022440.png,experiment,r,r,412.2627780000039
V3,24,24,Female,Right,11,Block 1,1.0096906999824569,0.1,true,bus,bus,occlusion,high,mask,partial viewing,many small,Stimulus\all_stim\occlusion\partialviewing\manysmall\high\manysmall_partialViewing_high_bus10.png,mask_img/000000046805.png,experiment,w,w,414.2072066999972
V3,24,24,Female,Right,12,Block 1,1.9195195000211243,0.025,true,cat,cat,occlusion,high,mask,partial viewing,few large,Stimulus\all_stim\occlusion\partialviewing\fewlarge\high\fewlarge_partialViewing_high_cat9.png,mask_img/000000017858.png,experiment,i,i,417.25532779999776
V3,24,24,Female,Right,13,Block 1,1.2000504999887198,0.05,true,person,person,occlusion,high,mask,partial viewing,few large,Stimulus\all_stim\occlusion\partialviewing\fewlarge\high\fewlarge_partialViewing_high_person6.png,mask_img/000000020392.png,experiment,o,o,419.2544261000003
V3,24,24,Female,Right,14,Block 1,0.706737600004999,0.025,false,banana,bus,occlusion,low,mask,partial viewing,many small,Stimulus\all_stim\occlusion\partialviewing\manysmall\low\manysmall_partialViewing_low_banana1.png,mask_img/000000054532.png,experiment,w,e,420.966737300012
V3,24,24,Female,Right,15,Block 1,1.1636012000089977,0.05,false,firehydrant,person,occlusion,low,mask,partial viewing,many small,Stimulus\all_stim\occlusion\partialviewing\manysmall\low\manysmall_partialViewing_low_firehydrant10.png,mask_img/000000060529.png,experiment,o,p,422.87834620001377
V3,24,24,Female,Right,16,Block 1,1.449339599988889,0.05,true,banana,banana,occlusion,control,mask,partial viewing,few large,Stimulus\all_stim\occlusion\partialviewing\fewlarge\control\fewlarge_partialViewing_control_banana8.png,mask_img/000000000690.png,experiment,e,e,425.5028100000054
V3,24,24,Female,Right,17,Block 1,0.9616340999782551,0.1,true,bus,bus,occlusion,low,mask,partial viewing,few large,Stimulus\all_stim\occlusion\partialviewing\fewlarge\low\fewlarge_partialViewing_low_bus8.png,mask_img/000000026782.png,experiment,w,w,427.51017819999834
V3,24,24,Female,Right,18,Block 1,1.7719752000120934,0.1,true,cat,cat,occlusion,low,mask,partial viewing,many small,Stimulus\all_stim\occlusion\partialviewing\manysmall\low\manysmall_partialViewing_low_cat7.png,mask_img/000000060158.png,experiment,i,i,430.35034870001255
V3,24,24,Female,Right,19,Block 1,1.3434402999992017,0.025,true,tree,tree,occlusion,control,mask,partial viewing,few large,Stimulus\all_stim\occlusion\partialviewing\fewlarge\control\fewlarge_partialViewing_control_tree10.png,mask_img/000000010414.png,experiment,r,r,432.7509381000127
V3,24,24,Female,Right,20,Block 1,1.9139624999952503,0.1,true,bird,bird,occlusion,low,mask,partial viewing,few large,Stimulus\all_stim\occlusion\partialviewing\fewlarge\low\fewlarge_partialViewing_low_bird2.png,mask_img/000000024125.png,experiment,u,u,435.3511100000178
V3,24,24,Female,Right,21,Block 1,0.9904103000008035,0.05,true,firehydrant,firehydrant,occlusion,high,mask,partial viewing,few large,Stimulus\all_stim\occlusion\partialviewing\fewlarge\high\fewlarge_partialViewing_high_firehydrant2.png,mask_img/000000018743.png,experiment,p,p,437.3667811000196
V3,24,24,Female,Right,22,Block 1,1.938845600001514,0.05,true,bird,bird,occlusion,control,mask,partial viewing,few large,Stimulus\all_stim\occlusion\partialviewing\fewlarge\control\fewlarge_partialViewing_control_bird5.png,mask_img/000000002197.png,experiment,u,u,440.23875360001693
V3,24,24,Female,Right,23,Block 1,1.105418599996483,0.05,true,tree,tree,occlusion,low,mask,partial viewing,few large,Stimulus\all_stim\occlusion\partialviewing\fewlarge\low\fewlarge_partialViewing_low_tree2.png,mask_img/000000031601.png,experiment,r,r,442.3749703000067
V3,24,24,Female,Right,24,Block 1,1.0486875000060536,0.1,true,bus,bus,occlusion,high,mask,partial viewing,many small,Stimulus\all_stim\occlusion\partialviewing\manysmall\high\manysmall_partialViewing_high_bus5.png,mask_img/000000047395.png,experiment,w,w,444.59867370000575
V3,24,24,Female,Right,25,Block 1,1.2282606000080705,0.025,true,tree,tree,occlusion,low,mask,partial viewing,many small,Stimulus\all_stim\occlusion\partialviewing\manysmall\low\manysmall_partialViewing_low_tree2.png,mask_img/000000062875.png,experiment,r,r,446.9503044000012
V3,24,24,Female,Right,26,Block 1,1.7330387999827508,0.1,false,banana,bird,occlusion,high,mask,partial viewing,many small,Stimulus\all_stim\occlusion\partialviewing\manysmall\high\manysmall_partialViewing_high_banana6.png,mask_img/000000042704.png,experiment,u,e,449.79850590002025
V3,24,24,Female,Right,27,Block 1,1.3260734000068624,0.025,true,bird,bird,occlusion,high,mask,partial viewing,many small,Stimulus\all_stim\occlusion\partialviewing\manysmall\high\manysmall_partialViewing_high_bird6.png,mask_img/000000044523.png,experiment,u,u,452.1584210000001
V3,24,24,Female,Right,28,Block 1,1.2616153999988455,0.1,true,building,building,occlusion,low,mask,partial viewing,many small,Stimulus\all_stim\occlusion\partialviewing\manysmall\low\manysmall_partialViewing_low_building5.png,mask_img/000000057930.png,experiment,q,q,454.502742200013
V3,24,24,Female,Right,29,Block 1,0.9389252999972086,0.1,true,firehydrant,firehydrant,occlusion,low,mask,partial viewing,many small,Stimulus\all_stim\occlusion\partialviewing\manysmall\low\manysmall_partialViewing_low_firehydrant9.png,mask_img/000000061693.png,experiment,p,p,456.134420700022
V3,24,24,Female,Right,30,Block 1,1.436224199977005,0.025,true,person,person,occlusion,high,mask,partial viewing,few large,Stimulus\all_stim\occlusion\partialviewing\fewlarge\high\fewlarge_partialViewing_high_person9.png,mask_img/000000021003.png,experiment,o,o,458.63027819999843
V3,24,24,Female,Right,31,Block 1,0.9012273999978788,0.1,true,building,building,occlusion,high,mask,partial viewing,many small,Stimulus\all_stim\occlusion\partialviewing\manysmall\high\manysmall_partialViewing_high_building2.png,mask_img/000000045306.png,experiment,q,q,460.3186360000109
V3,24,24,Female,Right,32,Block 1,1.4404841999930795,0.05,true,banana,banana,occlusion,control,mask,partial viewing,many small,Stimulus\all_stim\occlusion\partialviewing\manysmall\control\manysmall_partialViewing_control_banana4.png,mask_img/000000033667.png,experiment,e,e,462.9022581000172
V3,24,24,Female,Right,33,Block 1,0.892945100000361,0.05,true,building,building,occlusion,high,mask,partial viewing,few large,Stimulus\all_stim\occlusion\partialviewing\fewlarge\high\fewlarge_partialViewing_high_building8.png,mask_img/000000015366.png,experiment,q,q,464.67824940002174
V3,24,24,Female,Right,34,Block 1,1.1495127999805845,0.1,true,tree,tree,occlusion,control,mask,partial viewing,few large,Stimulus\all_stim\occlusion\partialviewing\fewlarge\control\fewlarge_partialViewing_control_tree6.png,mask_img/000000011328.png,experiment,r,r,466.91019230001257
V3,24,24,Female,Right,35,Block 1,0.9214847999974154,0.05,true,firehydrant,firehydrant,occlusion,high,mask,partial viewing,many small,Stimulus\all_stim\occlusion\partialviewing\manysmall\high\manysmall_partialViewing_high_firehydrant2.png,mask_img/000000050239.png,experiment,p,p,468.58047200000146
V3,24,24,Female,Right,36,Block 1,0.9244922999932896,0.1,true,bus,bus,occlusion,control,mask,partial viewing,many small,Stimulus\all_stim\occlusion\partialviewing\manysmall\control\manysmall_partialViewing_control_bus3.png,mask_img/000000036765.png,experiment,w,w,470.64711430002353
V3,24,24,Female,Right,37,Block 1,0.9110150000196882,0.05,true,bus,bus,occlusion,high,mask,partial viewing,few large,Stimulus\all_stim\occlusion\partialviewing\fewlarge\high\fewlarge_partialViewing_high_bus10.png,mask_img/000000015733.png,experiment,w,w,472.3426349000074
V3,24,24,Female,Right,38,Block 1,0.795674399996642,0.025,true,building,building,occlusion,low,mask,partial viewing,few large,Stimulus\all_stim\occlusion\partialviewing\fewlarge\low\fewlarge_partialViewing_low_building7.png,mask_img/000000025192.png,experiment,q,q,473.96709790002205
V3,24,24,Female,Right,39,Block 1,0.5941316999960691,0.1,true,building,building,occlusion,high,mask,partial viewing,many small,Stimulus\all_stim\occlusion\partialviewing\manysmall\high\manysmall_partialViewing_high_building1.png,mask_img/000000044950.png,experiment,q,q,475.3341214999964
V3,24,24,Female,Right,40,Block 1,0.7735524000017904,0.05,false,bird,person,occlusion,high,mask,partial viewing,many small,Stimulus\all_stim\occlusion\partialviewing\manysmall\high\manysmall_partialViewing_high_bird7.png,mask_img/000000044580.png,experiment,o,u,476.8869759000081
V3,24,24,Female,Right,41,Block 1,1.1092745999922045,0.1,true,banana,banana,occlusion,control,mask,partial viewing,many small,Stimulus\all_stim\occlusion\partialviewing\manysmall\control\manysmall_partialViewing_control_banana3.png,mask_img/000000033323.png,experiment,e,e,478.8304137000232
V3,24,24,Female,Right,42,Block 1,1.3583318000019062,0.1,true,bird,bird,occlusion,control,mask,partial viewing,many small,Stimulus\all_stim\occlusion\partialviewing\manysmall\control\manysmall_partialViewing_control_bird10.png,mask_img/000000034304.png,experiment,u,u,481.13507310001296
V3,24,24,Female,Right,43,Block 1,1.3590700999775436,0.025,true,bus,bus,occlusion,high,mask,partial viewing,many small,Stimulus\all_stim\occlusion\partialviewing\manysmall\high\manysmall_partialViewing_high_bus7.png,mask_img/000000047471.png,experiment,w,w,483.3106938000128
V3,24,24,Female,Right,44,Block 1,1.0518321999988984,0.05,true,bird,bird,occlusion,control,mask,partial viewing,many small,Stimulus\all_stim\occlusion\partialviewing\manysmall\control\manysmall_partialViewing_control_bird9.png,mask_img/000000035514.png,experiment,u,u,485.20713180000894
V3,24,24,Female,Right,45,Block 1,0.9057500000053551,0.05,true,tree,tree,occlusion,control,mask,partial viewing,many small,Stimulus\all_stim\occlusion\partialviewing\manysmall\control\manysmall_partialViewing_control_tree4.png,mask_img/000000041022.png,experiment,r,r,486.9592834000068
V3,24,24,Female,Right,46,Block 1,1.533000199997332,0.1,true,person,person,occlusion,high,mask,partial viewing,many small,Stimulus\all_stim\occlusion\partialviewing\manysmall\high\manysmall_partialViewing_high_person4.png,mask_img/000000052087.png,experiment,o,o,489.22281470001326
V3,24,24,Female,Right,47,Block 1,0.681919900001958,0.025,true,building,building,occlusion,low,mask,partial viewing,many small,Stimulus\all_stim\occlusion\partialviewing\manysmall\low\manysmall_partialViewing_low_building6.png,mask_img/000000057979.png,experiment,q,q,491.1076851999969
V3,24,24,Female,Right,48,Block 1,1.0933655999833718,0.05,true,tree,tree,occlusion,high,mask,partial viewing,few large,Stimulus\all_stim\occlusion\partialviewing\fewlarge\high\fewlarge_partialViewing_high_tree3.png,mask_img/000000021942.png,experiment,r,r,492.9428317999991
V3,24,24,Female,Right,49,Block 1,0.7153488999756519,0.025,true,bus,bus,occlusion,low,mask,partial viewing,many small,Stimulus\all_stim\occlusion\partialviewing\manysmall\low\manysmall_partialViewing_low_bus7.png,mask_img/000000058822.png,experiment,w,w,494.5585135000001
V3,24,24,Female,Right,50,Block 1,0.723709100013366,0.025,false,bird,person,occlusion,high,mask,partial viewing,many small,Stimulus\all_stim\occlusion\partialviewing\manysmall\high\manysmall_partialViewing_high_bird5.png,mask_img/000000044437.png,experiment,o,u,496.20764300000155
V3,24,24,Female,Right,51,Block 1,1.6341333000164013,0.05,true,bird,bird,occlusion,low,mask,partial viewing,few large,Stimulus\all_stim\occlusion\partialviewing\fewlarge\low\fewlarge_partialViewing_low_bird1.png,mask_img/000000023984.png,experiment,u,u,498.62235930000315
V3,24,24,Female,Right,52,Block 1,1.2243873000261374,0.025,false,bird,tree,occlusion,low,mask,partial viewing,many small,Stimulus\all_stim\occlusion\partialviewing\manysmall\low\manysmall_partialViewing_low_bird6.png,mask_img/000000056007.png,experiment,r,u,500.9269724000187
V3,24,24,Female,Right,53,Block 1,1.120790599990869,0.025,true,bird,bird,occlusion,low,mask,partial viewing,many small,Stimulus\all_stim\occlusion\partialviewing\manysmall\low\manysmall_partialViewing_low_bird3.png,mask_img/000000055849.png,experiment,u,u,503.2151019000157
V3,24,24,Female,Right,54,Block 1,0.5740771999990102,0.1,true,building,building,occlusion,low,mask,partial viewing,many small,Stimulus\all_stim\occlusion\partialviewing\manysmall\low\manysmall_partialViewing_low_building3.png,mask_img/000000057646.png,experiment,q,q,504.64915610000025
V3,24,24,Female,Right,55,Block 1,1.0708792000077665,0.1,false,banana,bird,occlusion,high,mask,partial viewing,many small,Stimulus\all_stim\occlusion\partialviewing\manysmall\high\manysmall_partialViewing_high_banana8.png,mask_img/000000043291.png,experiment,u,e,506.4704247000045
V3,24,24,Female,Right,56,Block 1,1.2634428000019398,0.1,true,cat,cat,occlusion,control,mask,partial viewing,few large,Stimulus\all_stim\occlusion\partialviewing\fewlarge\control\fewlarge_partialViewing_control_cat2.png,mask_img/000000006489.png,experiment,i,i,508.7986341000069
V3,24,24,Female,Right,57,Block 1,0.780808799987426,0.025,false,cat,bird,occlusion,high,mask,partial viewing,many small,Stimulus\all_stim\occlusion\partialviewing\manysmall\high\manysmall_partialViewing_high_cat2.png,mask_img/000000049092.png,experiment,u,i,510.5111356000125
V3,24,24,Female,Right,58,Block 1,0.5943345999985468,0.05,true,building,building,occlusion,high,mask,partial viewing,few large,Stimulus\all_stim\occlusion\partialviewing\fewlarge\high\fewlarge_partialViewing_high_building7.png,mask_img/000000015155.png,experiment,q,q,512.1855751000112
V3,24,24,Female,Right,59,Block 1,1.1527162000129465,0.025,true,bird,bird,occlusion,low,mask,partial viewing,few large,Stimulus\all_stim\occlusion\partialviewing\fewlarge\low\fewlarge_partialViewing_low_bird10.png,mask_img/000000023988.png,experiment,u,u,514.3744234000042
V3,24,24,Female,Right,60,Block 1,0.6210027000051923,0.05,true,building,building,occlusion,high,mask,partial viewing,few large,Stimulus\all_stim\occlusion\partialviewing\fewlarge\high\fewlarge_partialViewing_high_building1.png,mask_img/000000014335.png,experiment,q,q,516.0879102000035
V3,24,24,Female,Right,61,Block 1,0.718017700011842,0.05,false,banana,building,occlusion,high,mask,partial viewing,many small,Stimulus\all_stim\occlusion\partialviewing\manysmall\high\manysmall_partialViewing_high_banana5.png,mask_img/000000042541.png,experiment,q,e,517.5878998000117
V3,24,24,Female,Right,62,Block 1,1.2329238000093028,0.025,false,cat,tree,occlusion,low,mask,partial viewing,many small,Stimulus\all_stim\occlusion\partialviewing\manysmall\low\manysmall_partialViewing_low_cat10.png,mask_img/000000059046.png,experiment,r,i,519.6224903000111
V3,24,24,Female,Right,63,Block 1,0.5751219000085257,0.025,true,tree,tree,occlusion,low,mask,partial viewing,many small,Stimulus\all_stim\occlusion\partialviewing\manysmall\low\manysmall_partialViewing_low_tree4.png,mask_img/000000063337.png,experiment,r,r,521.3572647999972
V3,24,24,Female,Right,64,Block 1,0.9357611000014003,0.1,true,bird,bird,occlusion,low,mask,partial viewing,few large,Stimulus\all_stim\occlusion\partialviewing\fewlarge\low\fewlarge_partialViewing_low_bird4.png,mask_img/000000024193.png,experiment,u,u,522.9832446000073
V3,24,24,Female,Right,65,Block 1,0.5992144999909215,0.05,true,bird,bird,occlusion,high,mask,partial viewing,many small,Stimulus\all_stim\occlusion\partialviewing\manysmall\high\manysmall_partialViewing_high_bird10.png,mask_img/000000044065.png,experiment,u,u,524.4419376000005
V3,24,24,Female,Right,66,Block 1,1.124359400011599,0.1,true,banana,banana,occlusion,control,mask,partial viewing,many small,Stimulus\all_stim\occlusion\partialviewing\manysmall\control\manysmall_partialViewing_control_banana4.png,mask_img/000000033667.png,experiment,e,e,526.2627191000211
V3,24,24,Female,Right,67,Block 1,1.0653122999938205,0.025,true,tree,tree,occlusion,control,mask,partial viewing,few large,Stimulus\all_stim\occlusion\partialviewing\fewlarge\control\fewlarge_partialViewing_control_tree1.png,mask_img/000000010281.png,experiment,r,r,528.1185331000015
V3,24,24,Female,Right,68,Block 1,0.472625499998685,0.1,true,tree,tree,occlusion,low,mask,partial viewing,few large,Stimulus\all_stim\occlusion\partialviewing\fewlarge\low\fewlarge_partialViewing_low_tree9.png,mask_img/000000032965.png,experiment,r,r,529.544709800015
V3,24,24,Female,Right,69,Block 1,0.6992446999938693,0.05,true,building,building,occlusion,low,mask,partial viewing,many small,Stimulus\all_stim\occlusion\partialviewing\manysmall\low\manysmall_partialViewing_low_building5.png,mask_img/000000057930.png,experiment,q,q,531.2233429000189
V3,24,24,Female,Right,70,Block 1,1.3536624999833293,0.025,true,cat,cat,occlusion,low,mask,partial viewing,few large,Stimulus\all_stim\occlusion\partialviewing\fewlarge\low\fewlarge_partialViewing_low_cat1.png,mask_img/000000027151.png,experiment,i,i,533.4153269000235
V3,24,24,Female,Right,71,Block 1,0.6296464999904856,0.05,true,tree,tree,occlusion,high,mask,partial viewing,few large,Stimulus\all_stim\occlusion\partialviewing\fewlarge\high\fewlarge_partialViewing_high_tree1.png,mask_img/000000021206.png,experiment,r,r,534.871073700022
V3,24,24,Female,Right,72,Block 1,1.4830166999890935,0.025,true,person,person,occlusion,high,mask,partial viewing,few large,Stimulus\all_stim\occlusion\partialviewing\fewlarge\high\fewlarge_partialViewing_high_person5.png,mask_img/000000020381.png,experiment,o,o,537.5278701000207
V3,24,24,Female,Right,73,Block 1,1.1635644999914803,0.05,true,cat,cat,occlusion,control,mask,partial viewing,few large,Stimulus\all_stim\occlusion\partialviewing\fewlarge\control\fewlarge_partialViewing_control_cat3.png,mask_img/000000006709.png,experiment,i,i,539.3904669000185
V3,24,24,Female,Right,74,Block 1,0.8666703999915626,0.05,true,bird,bird,occlusion,control,mask,partial viewing,few large,Stimulus\all_stim\occlusion\partialviewing\fewlarge\control\fewlarge_partialViewing_control_bird3.png,mask_img/000000001810.png,experiment,u,u,541.2867137000139
V3,24,24,Female,Right,75,Block 1,1.3752517999964766,0.05,true,banana,banana,occlusion,high,mask,partial viewing,few large,Stimulus\all_stim\occlusion\partialviewing\fewlarge\high\fewlarge_partialViewing_high_banana4.png,mask_img/000000012377.png,experiment,e,e,543.6391605000244
V3,24,24,Female,Right,76,Block 1,1.2883967999950983,0.025,true,bus,bus,occlusion,high,mask,partial viewing,few large,Stimulus\all_stim\occlusion\partialviewing\fewlarge\high\fewlarge_partialViewing_high_bus9.png,mask_img/000000016764.png,experiment,w,w,545.7105747000023
V3,24,24,Female,Right,77,Block 1,1.1962467999837827,0.025,false,firehydrant,bus,occlusion,low,mask,partial viewing,many small,Stimulus\all_stim\occlusion\partialviewing\manysmall\low\manysmall_partialViewing_low_firehydrant2.png,mask_img/000000060548.png,experiment,w,p,547.6154555000248
V3,24,24,Female,Right,78,Block 1,1.224610200006282,0.025,true,bird,bird,occlusion,high,mask,partial viewing,few large,Stimulus\all_stim\occlusion\partialviewing\fewlarge\high\fewlarge_partialViewing_high_bird2.png,mask_img/000000013169.png,experiment,u,u,549.5354040000238
V3,24,24,Female,Right,79,Block 1,0.6786293000041042,0.025,true,building,building,occlusion,low,mask,partial viewing,many small,Stimulus\all_stim\occlusion\partialviewing\manysmall\low\manysmall_partialViewing_low_building7.png,mask_img/000000058021.png,experiment,q,q,551.2872614000225
V3,24,24,Female,Right,80,Block 1,0.5780488000018522,0.025,false,firehydrant,building,occlusion,low,mask,partial viewing,many small,Stimulus\all_stim\occlusion\partialviewing\manysmall\low\manysmall_partialViewing_low_firehydrant8.png,mask_img/000000061512.png,experiment,q,p,552.9724673000164
V3,24,24,Female,Right,81,Block 1,0.9435297999880277,0.025,true,tree,tree,occlusion,low,mask,partial viewing,many small,Stimulus\all_stim\occlusion\partialviewing\manysmall\low\manysmall_partialViewing_low_tree9.png,mask_img/000000063867.png,experiment,r,r,554.8632602000143
V3,24,24,Female,Right,82,Block 1,0.93655569999828,0.025,true,bus,bus,occlusion,high,mask,partial viewing,many small,Stimulus\all_stim\occlusion\partialviewing\manysmall\high\manysmall_partialViewing_high_bus10.png,mask_img/000000046805.png,experiment,w,w,556.6547484000039
V3,24,24,Female,Right,83,Block 1,0.7023919000057504,0.025,true,building,building,occlusion,control,mask,partial viewing,few large,Stimulus\all_stim\occlusion\partialviewing\fewlarge\control\fewlarge_partialViewing_control_building8.png,mask_img/000000005105.png,experiment,q,q,558.1426788000099
V3,24,24,Female,Right,84,Block 1,1.5390197999950033,0.025,true,banana,banana,occlusion,low,mask,partial viewing,few large,Stimulus\all_stim\occlusion\partialviewing\fewlarge\low\fewlarge_partialViewing_low_banana1.png,mask_img/000000022545.png,experiment,e,e,560.6946209000016
V3,24,24,Female,Right,85,Block 1,1.0973535999946762,0.1,true,bird,bird,occlusion,control,mask,partial viewing,few large,Stimulus\all_stim\occlusion\partialviewing\fewlarge\control\fewlarge_partialViewing_control_bird8.png,mask_img/000000002822.png,experiment,u,u,562.8791226000176
V3,24,24,Female,Right,86,Block 1,0.7789989000011701,0.025,true,bird,bird,occlusion,control,mask,partial viewing,few large,Stimulus\all_stim\occlusion\partialviewing\fewlarge\control\fewlarge_partialViewing_control_bird7.png,mask_img/000000002774.png,experiment,u,u,564.6078490000218
V3,24,24,Female,Right,87,Block 1,1.0066048000007868,0.025,true,person,person,occlusion,low,mask,partial viewing,few large,Stimulus\all_stim\occlusion\partialviewing\fewlarge\low\fewlarge_partialViewing_low_person7.png,mask_img/000000030526.png,experiment,o,o,566.6466999000113
V3,24,24,Female,Right,88,Block 1,0.8927109999931417,0.1,true,bus,bus,occlusion,low,mask,partial viewing,many small,Stimulus\all_stim\occlusion\partialviewing\manysmall\low\manysmall_partialViewing_low_bus6.png,mask_img/000000058815.png,experiment,w,w,568.5184756000235
V3,24,24,Female,Right,89,Block 1,0.8982193999981973,0.025,true,person,person,occlusion,control,mask,partial viewing,many small,Stimulus\all_stim\occlusion\partialviewing\manysmall\control\manysmall_partialViewing_control_person5.png,mask_img/000000040275.png,experiment,o,o,570.3351075000246
V3,24,24,Female,Right,90,Block 1,0.6796893999853637,0.05,true,bus,bus,occlusion,low,mask,partial viewing,few large,Stimulus\all_stim\occlusion\partialviewing\fewlarge\low\fewlarge_partialViewing_low_bus6.png,mask_img/000000026503.png,experiment,w,w,571.9970946000249
V3,24,24,Female,Right,91,Block 1,1.1756570999859832,0.05,true,tree,tree,occlusion,control,mask,partial viewing,few large,Stimulus\all_stim\occlusion\partialviewing\fewlarge\control\fewlarge_partialViewing_control_tree3.png,mask_img/000000010566.png,experiment,r,r,574.023162700003
V3,24,24,Female,Right,92,Block 1,0.8305064000014681,0.05,true,bus,bus,occlusion,control,mask,partial viewing,few large,Stimulus\all_stim\occlusion\partialviewing\fewlarge\control\fewlarge_partialViewing_control_bus3.png,mask_img/000000005418.png,experiment,w,w,575.7267257000203
V3,24,24,Female,Right,93,Block 1,1.5871009999827947,0.05,true,banana,banana,occlusion,high,mask,partial viewing,few large,Stimulus\all_stim\occlusion\partialviewing\fewlarge\high\fewlarge_partialViewing_high_banana9.png,mask_img/000000012999.png,experiment,e,e,578.1671911000158
V3,24,24,Female,Right,94,Block 1,1.316345499973977,0.05,false,bus,banana,occlusion,low,mask,partial viewing,few large,Stimulus\all_stim\occlusion\partialviewing\fewlarge\low\fewlarge_partialViewing_low_bus10.png,mask_img/000000025855.png,experiment,e,w,580.4473777000094
V3,24,24,Female,Right,95,Block 1,1.139713299984578,0.05,true,firehydrant,firehydrant,occlusion,control,mask,partial viewing,many small,Stimulus\all_stim\occlusion\partialviewing\manysmall\control\manysmall_partialViewing_control_firehydrant6.png,mask_img/000000039406.png,experiment,p,p,582.6634625000006
V3,24,24,Female,Right,96,Block 1,1.2409874000004493,0.025,false,firehydrant,bus,occlusion,high,mask,partial viewing,few large,Stimulus\all_stim\occlusion\partialviewing\fewlarge\high\fewlarge_partialViewing_high_firehydrant5.png,mask_img/000000018982.png,experiment,w,p,584.6791306000086
V3,24,24,Female,Right,97,Block 1,0.6246542000153568,0.1,true,building,building,occlusion,low,mask,partial viewing,few large,Stimulus\all_stim\occlusion\partialviewing\fewlarge\low\fewlarge_partialViewing_low_building6.png,mask_img/000000025143.png,experiment,q,q,586.3890081999998
V3,24,24,Female,Right,98,Block 1,1.0054255000140984,0.05,true,tree,tree,occlusion,low,mask,partial viewing,few large,Stimulus\all_stim\occlusion\partialviewing\fewlarge\low\fewlarge_partialViewing_low_tree5.png,mask_img/000000032403.png,experiment,r,r,588.1832830000203
V3,24,24,Female,Right,99,Block 1,1.210041899990756,0.1,false,person,bird,occlusion,high,mask,partial viewing,many small,Stimulus\all_stim\occlusion\partialviewing\manysmall\high\manysmall_partialViewing_high_person10.png,mask_img/000000051453.png,experiment,u,o,590.2793085000012
V3,24,24,Female,Right,100,Block 1,0.8924613000126556,0.05,true,tree,tree,occlusion,low,mask,partial viewing,many small,Stimulus\all_stim\occlusion\partialviewing\manysmall\low\manysmall_partialViewing_low_tree3.png,mask_img/000000063147.png,experiment,r,r,592.1991371000186
V3,24,24,Female,Right,101,Block 1,0.48287700000219047,0.025,true,tree,tree,occlusion,control,mask,partial viewing,few large,Stimulus\all_stim\occlusion\partialviewing\fewlarge\control\fewlarge_partialViewing_control_tree7.png,mask_img/000000011504.png,experiment,r,r,593.4760500999982
V3,24,24,Female,Right,102,Block 1,0.5738986000069417,0.025,true,bus,bus,occlusion,low,mask,partial viewing,few large,Stimulus\all_stim\occlusion\partialviewing\fewlarge\low\fewlarge_partialViewing_low_bus10.png,mask_img/000000025855.png,experiment,w,w,595.0265526000003
V3,24,24,Female,Right,103,Block 1,1.329935799993109,0.1,false,cat,person,occlusion,low,mask,partial viewing,many small,Stimulus\all_stim\occlusion\partialviewing\manysmall\low\manysmall_partialViewing_low_cat4.png,mask_img/000000059483.png,experiment,o,i,597.5269623000058
V3,24,24,Female,Right,104,Block 1,1.3874400000204332,0.1,true,bird,bird,occlusion,low,mask,partial viewing,many small,Stimulus\all_stim\occlusion\partialviewing\manysmall\low\manysmall_partialViewing_low_bird3.png,mask_img/000000055849.png,experiment,u,u,599.6308428000193
V3,24,24,Female,Right,105,Block 1,1.1994428999896627,0.05,false,firehydrant,cat,occlusion,high,mask,partial viewing,many small,Stimulus\all_stim\occlusion\partialviewing\manysmall\high\manysmall_partialViewing_high_firehydrant9.png,mask_img/000000051164.png,experiment,i,p,601.959360000008
V3,24,24,Female,Right,106,Block 1,1.0350990000006277,0.025,true,tree,tree,occlusion,low,mask,partial viewing,many small,Stimulus\all_stim\occlusion\partialviewing\manysmall\low\manysmall_partialViewing_low_tree10.png,mask_img/000000062716.png,experiment,r,r,604.1834889000165
V3,24,24,Female,Right,107,Block 1,0.9966616000165232,0.025,true,bird,bird,occlusion,high,mask,partial viewing,few large,Stimulus\all_stim\occlusion\partialviewing\fewlarge\high\fewlarge_partialViewing_high_bird10.png,mask_img/000000013127.png,experiment,u,u,606.1430102000013
V3,24,24,Female,Right,108,Block 1,1.1082380999869201,0.025,true,person,person,occlusion,control,mask,partial viewing,many small,Stimulus\all_stim\occlusion\partialviewing\manysmall\control\manysmall_partialViewing_control_person1.png,mask_img/000000039656.png,experiment,o,o,608.3118122000014
V3,24,24,Female,Right,109,Block 1,0.9183375999855343,0.05,true,person,person,occlusion,high,mask,partial viewing,many small,Stimulus\all_stim\occlusion\partialviewing\manysmall\high\manysmall_partialViewing_high_person5.png,mask_img/000000052250.png,experiment,o,o,610.3030219000066
V3,24,24,Female,Right,110,Block 1,0.7715532000001986,0.1,true,building,building,occlusion,control,mask,partial viewing,few large,Stimulus\all_stim\occlusion\partialviewing\fewlarge\control\fewlarge_partialViewing_control_building10.png,mask_img/000000003225.png,experiment,q,q,611.8474247000122
V3,24,24,Female,Right,111,Block 1,0.771432499983348,0.05,true,bus,bus,occlusion,high,mask,partial viewing,few large,Stimulus\all_stim\occlusion\partialviewing\fewlarge\high\fewlarge_partialViewing_high_bus4.png,mask_img/000000015927.png,experiment,w,w,613.7514389000135
V3,24,24,Female,Right,112,Block 1,1.14734419999877,0.05,true,tree,tree,occlusion,low,mask,partial viewing,many small,Stimulus\all_stim\occlusion\partialviewing\manysmall\low\manysmall_partialViewing_low_tree1.png,mask_img/000000062690.png,experiment,r,r,615.7593308000069
V3,24,24,Female,Right,113,Block 1,0.6448855999915395,0.025,true,building,building,occlusion,high,mask,partial viewing,few large,Stimulus\all_stim\occlusion\partialviewing\fewlarge\high\fewlarge_partialViewing_high_building9.png,mask_img/000000015619.png,experiment,q,q,617.3914532000199
V3,24,24,Female,Right,114,Block 1,1.1034563000139315,0.025,false,firehydrant,bus,occlusion,low,mask,partial viewing,many small,Stimulus\all_stim\occlusion\partialviewing\manysmall\low\manysmall_partialViewing_low_firehydrant6.png,mask_img/000000060647.png,experiment,w,p,619.2952417000197
V3,24,24,Female,Right,115,Block 1,1.140403299999889,0.1,true,bird,bird,occlusion,low,mask,partial viewing,few large,Stimulus\all_stim\occlusion\partialviewing\fewlarge\low\fewlarge_partialViewing_low_bird9.png,mask_img/000000024530.png,experiment,u,u,621.1434131000133
V3,24,24,Female,Right,116,Block 1,0.8111881999939214,0.05,true,person,person,occlusion,control,mask,partial viewing,many small,Stimulus\all_stim\occlusion\partialviewing\manysmall\control\manysmall_partialViewing_control_person3.png,mask_img/000000040008.png,experiment,o,o,622.6787772000243
V3,24,24,Female,Right,117,Block 1,0.8320628000074066,0.025,true,bus,bus,occlusion,high,mask,partial viewing,few large,Stimulus\all_stim\occlusion\partialviewing\fewlarge\high\fewlarge_partialViewing_high_bus3.png,mask_img/000000015908.png,experiment,w,w,624.687065200007
V3,24,24,Female,Right,118,Block 1,0.5564942999917548,0.05,true,building,building,occlusion,low,mask,partial viewing,many small,Stimulus\all_stim\occlusion\partialviewing\manysmall\low\manysmall_partialViewing_low_building8.png,mask_img/000000058073.png,experiment,q,q,626.325637300004
V3,24,24,Female,Right,119,Block 1,0.6452208000118844,0.1,true,person,person,occlusion,high,mask,partial viewing,many small,Stimulus\all_stim\occlusion\partialviewing\manysmall\high\manysmall_partialViewing_high_person7.png,mask_img/000000052562.png,experiment,o,o,627.8433137999964
V3,24,24,Female,Right,120,Block 1,0.7103532000037376,0.05,true,tree,tree,occlusion,control,mask,partial viewing,many small,Stimulus\all_stim\occlusion\partialviewing\manysmall\control\manysmall_partialViewing_control_tree2.png,mask_img/000000041008.png,experiment,r,r,629.3828789000108
V3,24,24,Female,Right,121,Block 1,0.6432174000074156,0.025,true,firehydrant,firehydrant,occlusion,high,mask,partial viewing,few large,Stimulus\all_stim\occlusion\partialviewing\fewlarge\high\fewlarge_partialViewing_high_firehydrant6.png,mask_img/000000019134.png,experiment,p,p,631.0155118000112
V3,24,24,Female,Right,122,Block 1,2.0596292999980506,0.025,false,bird,tree,occlusion,high,mask,partial viewing,few large,Stimulus\all_stim\occlusion\partialviewing\fewlarge\high\fewlarge_partialViewing_high_bird3.png,mask_img/000000013455.png,experiment,r,u,634.0715805000218
V3,24,24,Female,Right,123,Block 1,0.7960437000147067,0.05,false,banana,tree,occlusion,high,mask,partial viewing,many small,Stimulus\all_stim\occlusion\partialviewing\manysmall\high\manysmall_partialViewing_high_banana9.png,mask_img/000000043579.png,experiment,r,e,635.6707640000095
V3,24,24,Female,Right,124,Block 1,0.5528152999759186,0.05,true,building,building,occlusion,low,mask,partial viewing,many small,Stimulus\all_stim\occlusion\partialviewing\manysmall\low\manysmall_partialViewing_low_building2.png,mask_img/000000057551.png,experiment,q,q,637.0980314000044
V3,24,24,Female,Right,125,Block 1,0.5602340000041295,0.025,true,bus,bus,occlusion,high,mask,partial viewing,few large,Stimulus\all_stim\occlusion\partialviewing\fewlarge\high\fewlarge_partialViewing_high_bus5.png,mask_img/000000015986.png,experiment,w,w,638.4315154000069
V3,24,24,Female,Right,126,Block 1,0.7046680999919772,0.025,false,cat,bird,occlusion,high,mask,partial viewing,few large,Stimulus\all_stim\occlusion\partialviewing\fewlarge\high\fewlarge_partialViewing_high_cat2.png,mask_img/000000017352.png,experiment,u,i,639.8874539000099
V3,24,24,Female,Right,127,Block 1,0.9461606999975629,0.1,true,bird,bird,occlusion,high,mask,partial viewing,few large,Stimulus\all_stim\occlusion\partialviewing\fewlarge\high\fewlarge_partialViewing_high_bird9.png,mask_img/000000014175.png,experiment,u,u,642.0075113000057
V3,24,24,Female,Right,128,Block 1,0.7572209999780171,0.1,true,bird,bird,occlusion,high,mask,partial viewing,few large,Stimulus\all_stim\occlusion\partialviewing\fewlarge\high\fewlarge_partialViewing_high_bird3.png,mask_img/000000013455.png,experiment,u,u,643.7029817000148
V3,24,24,Female,Right,129,Block 1,0.5899491000163835,0.05,true,firehydrant,firehydrant,occlusion,control,mask,partial viewing,few large,Stimulus\all_stim\occlusion\partialviewing\fewlarge\control\fewlarge_partialViewing_control_firehydrant6.png,mask_img/000000008025.png,experiment,p,p,645.4517223000003
V3,24,24,Female,Right,130,Block 1,1.374223599996185,0.025,false,banana,firehydrant,occlusion,high,mask,partial viewing,many small,Stimulus\all_stim\occlusion\partialviewing\manysmall\high\manysmall_partialViewing_high_banana10.png,mask_img/000000042196.png,experiment,p,e,647.5916595000017
V3,24,24,Female,Right,131,Block 1,1.1622815000009723,0.1,true,firehydrant,firehydrant,occlusion,high,mask,partial viewing,many small,Stimulus\all_stim\occlusion\partialviewing\manysmall\high\manysmall_partialViewing_high_firehydrant7.png,mask_img/000000050790.png,experiment,p,p,649.8803578000225
V3,24,24,Female,Right,132,Block 1,0.8746056999952998,0.1,true,bird,bird,occlusion,high,mask,partial viewing,few large,Stimulus\all_stim\occlusion\partialviewing\fewlarge\high\fewlarge_partialViewing_high_bird2.png,mask_img/000000013169.png,experiment,u,u,651.5676609000075
V3,24,24,Female,Right,133,Block 1,0.8091814999934286,0.05,true,bird,bird,occlusion,high,mask,partial viewing,few large,Stimulus\all_stim\occlusion\partialviewing\fewlarge\high\fewlarge_partialViewing_high_bird1.png,mask_img/000000013061.png,experiment,u,u,653.511527900002
V3,24,24,Female,Right,134,Block 1,1.4060840000165626,0.025,true,cat,cat,occlusion,high,mask,partial viewing,many small,Stimulus\all_stim\occlusion\partialviewing\manysmall\high\manysmall_partialViewing_high_cat7.png,mask_img/000000049602.png,experiment,i,i,655.6628959000227
V3,24,24,Female,Right,135,Block 1,0.813127200002782,0.05,true,bus,bus,occlusion,low,mask,partial viewing,many small,Stimulus\all_stim\occlusion\partialviewing\manysmall\low\manysmall_partialViewing_low_bus8.png,mask_img/000000058873.png,experiment,w,w,657.159811999998
V3,24,24,Female,Right,136,Block 1,0.9103356999985408,0.025,true,firehydrant,firehydrant,occlusion,high,mask,partial viewing,many small,Stimulus\all_stim\occlusion\partialviewing\manysmall\high\manysmall_partialViewing_high_firehydrant2.png,mask_img/000000050239.png,experiment,p,p,659.0635486000101
V3,24,24,Female,Right,137,Block 1,0.9778167999756988,0.025,false,firehydrant,bus,occlusion,low,mask,partial viewing,many small,Stimulus\all_stim\occlusion\partialviewing\manysmall\low\manysmall_partialViewing_low_firehydrant5.png,mask_img/000000060623.png,experiment,w,p,661.1190448999987
V3,24,24,Female,Right,138,Block 1,0.5406023999967147,0.05,true,building,building,occlusion,control,mask,partial viewing,many small,Stimulus\all_stim\occlusion\partialviewing\manysmall\control\manysmall_partialViewing_control_building2.png,mask_img/000000035864.png,experiment,q,q,662.460198100016
V3,24,24,Female,Right,139,Block 1,0.5283366999938153,0.05,false,bus,building,occlusion,control,mask,partial viewing,many small,Stimulus\all_stim\occlusion\partialviewing\manysmall\control\manysmall_partialViewing_control_bus7.png,mask_img/000000037339.png,experiment,q,w,664.0947109000117
V3,24,24,Female,Right,140,Block 1,1.2709134999895468,0.025,true,cat,cat,occlusion,low,mask,partial viewing,few large,Stimulus\all_stim\occlusion\partialviewing\fewlarge\low\fewlarge_partialViewing_low_cat7.png,mask_img/000000027890.png,experiment,i,i,666.2240953000146
V3,24,24,Female,Right,141,Block 1,1.5304638000088744,0.1,false,bus,banana,occlusion,control,mask,partial viewing,many small,Stimulus\all_stim\occlusion\partialviewing\manysmall\control\manysmall_partialViewing_control_bus7.png,mask_img/000000037339.png,experiment,e,w,668.7195666000189
V3,24,24,Female,Right,142,Block 1,1.379921200015815,0.1,true,person,person,occlusion,low,mask,partial viewing,many small,Stimulus\all_stim\occlusion\partialviewing\manysmall\low\manysmall_partialViewing_low_person5.png,mask_img/000000062193.png,experiment,o,o,670.83138280001
V3,24,24,Female,Right,143,Block 1,0.8419539999740664,0.1,true,building,building,occlusion,low,mask,partial viewing,few large,Stimulus\all_stim\occlusion\partialviewing\fewlarge\low\fewlarge_partialViewing_low_building3.png,mask_img/000000024808.png,experiment,q,q,672.7995329000114
V3,24,24,Female,Right,144,Block 1,0.7552844999881927,0.05,true,bus,bus,occlusion,control,mask,partial viewing,many small,Stimulus\all_stim\occlusion\partialviewing\manysmall\control\manysmall_partialViewing_control_bus10.png,mask_img/000000036482.png,experiment,w,w,702.1592277000018
V3,24,24,Female,Right,145,Block 2,1.1759936999878846,0.025,false,banana,person,occlusion,low,mask,partial viewing,few large,Stimulus\all_stim\occlusion\partialviewing\fewlarge\low\fewlarge_partialViewing_low_banana9.png,mask_img/000000023967.png,experiment,o,e,704.4795059000026
V3,24,24,Female,Right,146,Block 2,1.3821131000004243,0.025,false,person,cat,occlusion,high,mask,partial viewing,many small,Stimulus\all_stim\occlusion\partialviewing\manysmall\high\manysmall_partialViewing_high_person9.png,mask_img/000000052619.png,experiment,i,o,706.9671492000052
V3,24,24,Female,Right,147,Block 2,0.891441500018118,0.05,true,bus,bus,occlusion,high,mask,partial viewing,many small,Stimulus\all_stim\occlusion\partialviewing\manysmall\high\manysmall_partialViewing_high_bus4.png,mask_img/000000047316.png,experiment,w,w,709.0074181000236
V3,24,24,Female,Right,148,Block 2,0.9103787000058219,0.025,true,tree,tree,occlusion,control,mask,partial viewing,few large,Stimulus\all_stim\occlusion\partialviewing\fewlarge\control\fewlarge_partialViewing_control_tree8.png,mask_img/000000011544.png,experiment,r,r,710.7756383000233
V3,24,24,Female,Right,149,Block 2,0.5125922999868635,0.025,true,tree,tree,occlusion,control,mask,partial viewing,few large,Stimulus\all_stim\occlusion\partialviewing\fewlarge\control\fewlarge_partialViewing_control_tree6.png,mask_img/000000011328.png,experiment,r,r,712.4018699000007
V3,24,24,Female,Right,150,Block 2,0.6432290000084322,0.05,true,bus,bus,occlusion,control,mask,partial viewing,many small,Stimulus\all_stim\occlusion\partialviewing\manysmall\control\manysmall_partialViewing_control_bus6.png,mask_img/000000037174.png,experiment,w,w,713.7358972000075
V3,24,24,Female,Right,151,Block 2,0.4613805999979377,0.025,true,bus,bus,occlusion,control,mask,partial viewing,many small,Stimulus\all_stim\occlusion\partialviewing\manysmall\control\manysmall_partialViewing_control_bus6.png,mask_img/000000037174.png,experiment,w,w,715.0526180000161
V3,24,24,Female,Right,152,Block 2,0.41027580000809394,0.05,true,building,building,occlusion,low,mask,partial viewing,many small,Stimulus\all_stim\occlusion\partialviewing\manysmall\low\manysmall_partialViewing_low_building9.png,mask_img/000000058102.png,experiment,q,q,716.2032620999962
V3,24,24,Female,Right,153,Block 2,1.5326838000037242,0.1,true,banana,banana,occlusion,high,mask,partial viewing,few large,Stimulus\all_stim\occlusion\partialviewing\fewlarge\high\fewlarge_partialViewing_high_banana4.png,mask_img/000000012377.png,experiment,e,e,718.8636507000192
V3,24,24,Female,Right,154,Block 2,0.6107843999925535,0.05,true,firehydrant,firehydrant,occlusion,low,mask,partial viewing,few large,Stimulus\all_stim\occlusion\partialviewing\fewlarge\low\fewlarge_partialViewing_low_firehydrant10.png,mask_img/000000028367.png,experiment,p,p,720.3054828000022
V3,24,24,Female,Right,155,Block 2,0.7199583000037819,0.1,true,bus,bus,occlusion,control,mask,partial viewing,few large,Stimulus\all_stim\occlusion\partialviewing\fewlarge\control\fewlarge_partialViewing_control_bus9.png,mask_img/000000006263.png,experiment,w,w,721.7596680000133
V3,24,24,Female,Right,156,Block 2,1.6152641999942716,0.1,true,cat,cat,occlusion,low,mask,partial viewing,few large,Stimulus\all_stim\occlusion\partialviewing\fewlarge\low\fewlarge_partialViewing_low_cat3.png,mask_img/000000027556.png,experiment,i,i,724.1998807000055
V3,24,24,Female,Right,157,Block 2,0.8753027999773622,0.05,true,bird,bird,occlusion,control,mask,partial viewing,few large,Stimulus\all_stim\occlusion\partialviewing\fewlarge\control\fewlarge_partialViewing_control_bird6.png,mask_img/000000002337.png,experiment,u,u,726.127373700001
V3,24,24,Female,Right,158,Block 2,1.0464577999955509,0.025,true,person,person,occlusion,high,mask,partial viewing,few large,Stimulus\all_stim\occlusion\partialviewing\fewlarge\high\fewlarge_partialViewing_high_person6.png,mask_img/000000020392.png,experiment,o,o,728.1759325000166
V3,24,24,Female,Right,159,Block 2,0.8610861000197474,0.1,true,bus,bus,occlusion,low,mask,partial viewing,few large,Stimulus\all_stim\occlusion\partialviewing\fewlarge\low\fewlarge_partialViewing_low_bus7.png,mask_img/000000026720.png,experiment,w,w,729.7591352000018
V3,24,24,Female,Right,160,Block 2,0.5877399999881163,0.05,true,firehydrant,firehydrant,occlusion,control,mask,partial viewing,many small,Stimulus\all_stim\occlusion\partialviewing\manysmall\control\manysmall_partialViewing_control_firehydrant7.png,mask_img/000000039475.png,experiment,p,p,731.2774842000217
V3,24,24,Female,Right,161,Block 2,1.0160184999986086,0.025,true,tree,tree,occlusion,high,mask,partial viewing,few large,Stimulus\all_stim\occlusion\partialviewing\fewlarge\high\fewlarge_partialViewing_high_tree9.png,mask_img/000000022440.png,experiment,r,r,733.0158268000232
V3,24,24,Female,Right,162,Block 2,0.9382298999989871,0.1,true,person,person,occlusion,low,mask,partial viewing,many small,Stimulus\all_stim\occlusion\partialviewing\manysmall\low\manysmall_partialViewing_low_person3.png,mask_img/000000062128.png,experiment,o,o,734.887921800022
V3,24,24,Female,Right,163,Block 2,1.2235559000109788,0.1,true,person,person,occlusion,low,mask,partial viewing,few large,Stimulus\all_stim\occlusion\partialviewing\fewlarge\low\fewlarge_partialViewing_low_person10.png,mask_img/000000029128.png,experiment,o,o,737.0311967000016
V3,24,24,Female,Right,164,Block 2,1.0294909000222106,0.05,false,bird,tree,occlusion,control,mask,partial viewing,many small,Stimulus\all_stim\occlusion\partialviewing\manysmall\control\manysmall_partialViewing_control_bird10.png,mask_img/000000034304.png,experiment,r,u,738.7768000000215
V3,24,24,Female,Right,165,Block 2,0.6229608999856282,0.05,true,firehydrant,firehydrant,occlusion,low,mask,partial viewing,few large,Stimulus\all_stim\occlusion\partialviewing\fewlarge\low\fewlarge_partialViewing_low_firehydrant5.png,mask_img/000000028698.png,experiment,p,p,740.4312839000195
V3,24,24,Female,Right,166,Block 2,0.5671516999718733,0.1,true,building,building,occlusion,control,mask,partial viewing,many small,Stimulus\all_stim\occlusion\partialviewing\manysmall\control\manysmall_partialViewing_control_building9.png,mask_img/000000036226.png,experiment,q,q,741.7992122000142
V3,24,24,Female,Right,167,Block 2,0.5937951999949291,0.025,true,building,building,occlusion,low,mask,partial viewing,few large,Stimulus\all_stim\occlusion\partialviewing\fewlarge\low\fewlarge_partialViewing_low_building8.png,mask_img/000000025453.png,experiment,q,q,743.5667362000095
V3,24,24,Female,Right,168,Block 2,0.7774378999893088,0.05,true,tree,tree,occlusion,low,mask,partial viewing,few large,Stimulus\all_stim\occlusion\partialviewing\fewlarge\low\fewlarge_partialViewing_low_tree7.png,mask_img/000000032906.png,experiment,r,r,745.3359128000156
V3,24,24,Female,Right,169,Block 2,0.9668864000122994,0.05,true,bird,bird,occlusion,low,mask,partial viewing,few large,Stimulus\all_stim\occlusion\partialviewing\fewlarge\low\fewlarge_partialViewing_low_bird3.png,mask_img/000000024157.png,experiment,u,u,747.4315959000087
V3,24,24,Female,Right,170,Block 2,0.5848999999871012,0.025,true,firehydrant,firehydrant,occlusion,control,mask,partial viewing,few large,Stimulus\all_stim\occlusion\partialviewing\fewlarge\control\fewlarge_partialViewing_control_firehydrant8.png,mask_img/000000008193.png,experiment,p,p,749.2203748000029
V3,24,24,Female,Right,171,Block 2,0.6128810999798588,0.1,true,tree,tree,occlusion,control,mask,partial viewing,few large,Stimulus\all_stim\occlusion\partialviewing\fewlarge\control\fewlarge_partialViewing_control_tree7.png,mask_img/000000011504.png,experiment,r,r,750.8044091000047
V3,24,24,Female,Right,172,Block 2,0.658005300007062,0.1,true,bus,bus,occlusion,low,mask,partial viewing,few large,Stimulus\all_stim\occlusion\partialviewing\fewlarge\low\fewlarge_partialViewing_low_bus1.png,mask_img/000000025820.png,experiment,w,w,752.6386313000112
V3,24,24,Female,Right,173,Block 2,0.7848958999966271,0.1,true,bus,bus,occlusion,low,mask,partial viewing,many small,Stimulus\all_stim\occlusion\partialviewing\manysmall\low\manysmall_partialViewing_low_bus5.png,mask_img/000000058801.png,experiment,w,w,754.1437516000005
V3,24,24,Female,Right,174,Block 2,0.4928924000123516,0.05,true,bus,bus,occlusion,low,mask,partial viewing,few large,Stimulus\all_stim\occlusion\partialviewing\fewlarge\low\fewlarge_partialViewing_low_bus8.png,mask_img/000000026782.png,experiment,w,w,755.7728279000148
V3,24,24,Female,Right,175,Block 2,0.466329399991082,0.025,true,bus,bus,occlusion,control,mask,partial viewing,few large,Stimulus\all_stim\occlusion\partialviewing\fewlarge\control\fewlarge_partialViewing_control_bus5.png,mask_img/000000005615.png,experiment,w,w,757.106846700015
V3,24,24,Female,Right,176,Block 2,1.445745499979239,0.025,true,cat,cat,occlusion,control,mask,partial viewing,many small,Stimulus\all_stim\occlusion\partialviewing\manysmall\control\manysmall_partialViewing_control_cat7.png,mask_img/000000038798.png,experiment,i,i,759.6154296000022
V3,24,24,Female,Right,177,Block 2,1.535983200010378,0.05,true,bird,bird,occlusion,low,mask,partial viewing,few large,Stimulus\all_stim\occlusion\partialviewing\fewlarge\low\fewlarge_partialViewing_low_bird5.png,mask_img/000000024239.png,experiment,u,u,761.9046830000007
V3,24,24,Female,Right,178,Block 2,0.8897427000047173,0.05,true,tree,tree,occlusion,high,mask,partial viewing,many small,Stimulus\all_stim\occlusion\partialviewing\manysmall\high\manysmall_partialViewing_high_tree3.png,mask_img/000000052936.png,experiment,r,r,763.967278199998
V3,24,24,Female,Right,179,Block 2,0.7617361000156961,0.025,false,cat,bird,occlusion,high,mask,partial viewing,few large,Stimulus\all_stim\occlusion\partialviewing\fewlarge\high\fewlarge_partialViewing_high_cat10.png,mask_img/000000017308.png,experiment,u,i,765.5442645000003
V3,24,24,Female,Right,180,Block 2,0.5345171999942977,0.025,true,bird,bird,occlusion,control,mask,partial viewing,few large,Stimulus\all_stim\occlusion\partialviewing\fewlarge\control\fewlarge_partialViewing_control_bird3.png,mask_img/000000001810.png,experiment,u,u,767.2625820999965
V3,24,24,Female,Right,181,Block 2,0.5126748000038788,0.05,false,banana,bird,occlusion,low,mask,partial viewing,many small,Stimulus\all_stim\occlusion\partialviewing\manysmall\low\manysmall_partialViewing_low_banana1.png,mask_img/000000054532.png,experiment,u,e,768.6792521000025
V3,24,24,Female,Right,182,Block 2,0.7441828000009991,0.025,false,banana,bird,occlusion,high,mask,partial viewing,many small,Stimulus\all_stim\occlusion\partialviewing\manysmall\high\manysmall_partialViewing_high_banana3.png,mask_img/000000042476.png,experiment,u,e,770.2880709000165
V3,24,24,Female,Right,183,Block 2,1.14267210001708,0.05,true,cat,cat,occlusion,low,mask,partial viewing,many small,Stimulus\all_stim\occlusion\partialviewing\manysmall\low\manysmall_partialViewing_low_cat7.png,mask_img/000000060158.png,experiment,i,i,772.5596321000194
V3,24,24,Female,Right,184,Block 2,0.5958443999988958,0.025,true,tree,tree,occlusion,high,mask,partial viewing,few large,Stimulus\all_stim\occlusion\partialviewing\fewlarge\high\fewlarge_partialViewing_high_tree6.png,mask_img/000000022142.png,experiment,r,r,774.1159231000056
V3,24,24,Female,Right,185,Block 2,0.6592433000041638,0.05,true,bus,bus,occlusion,control,mask,partial viewing,few large,Stimulus\all_stim\occlusion\partialviewing\fewlarge\control\fewlarge_partialViewing_control_bus4.png,mask_img/000000005574.png,experiment,w,w,775.5522274000105
V3,24,24,Female,Right,186,Block 2,0.612014000013005,0.05,true,firehydrant,firehydrant,occlusion,control,mask,partial viewing,many small,Stimulus\all_stim\occlusion\partialviewing\manysmall\control\manysmall_partialViewing_control_firehydrant2.png,mask_img/000000039089.png,experiment,p,p,776.9506414000061
V3,24,24,Female,Right,187,Block 2,1.190396400023019,0.1,true,banana,banana,occlusion,low,mask,partial viewing,few large,Stimulus\all_stim\occlusion\partialviewing\fewlarge\low\fewlarge_partialViewing_low_banana5.png,mask_img/000000023100.png,experiment,e,e,779.0634344000136
V3,24,24,Female,Right,188,Block 2,1.7471095000219066,0.1,true,cat,cat,occlusion,low,mask,partial viewing,few large,Stimulus\all_stim\occlusion\partialviewing\fewlarge\low\fewlarge_partialViewing_low_cat10.png,mask_img/000000027319.png,experiment,i,i,781.8721095000219
V3,24,24,Female,Right,189,Block 2,0.6912764000007883,0.05,true,firehydrant,firehydrant,occlusion,high,mask,partial viewing,few large,Stimulus\all_stim\occlusion\partialviewing\fewlarge\high\fewlarge_partialViewing_high_firehydrant5.png,mask_img/000000018982.png,experiment,p,p,783.6873030000133
V3,24,24,Female,Right,190,Block 2,0.5629170000029262,0.05,true,building,building,occlusion,low,mask,partial viewing,few large,Stimulus\all_stim\occlusion\partialviewing\fewlarge\low\fewlarge_partialViewing_low_building10.png,mask_img/000000024591.png,experiment,q,q,785.4047548000235
V3,24,24,Female,Right,191,Block 2,0.6470265999960247,0.1,true,firehydrant,firehydrant,occlusion,control,mask,partial viewing,few large,Stimulus\all_stim\occlusion\partialviewing\fewlarge\control\fewlarge_partialViewing_control_firehydrant6.png,mask_img/000000008025.png,experiment,p,p,786.8720519000199
V3,24,24,Female,Right,192,Block 2,0.6016560999851208,0.05,true,firehydrant,firehydrant,occlusion,low,mask,partial viewing,few large,Stimulus\all_stim\occlusion\partialviewing\fewlarge\low\fewlarge_partialViewing_low_firehydrant1.png,mask_img/000000028304.png,experiment,p,p,788.2397140000248
V3,24,24,Female,Right,193,Block 2,0.45700890000443906,0.025,true,firehydrant,firehydrant,occlusion,low,mask,partial viewing,few large,Stimulus\all_stim\occlusion\partialviewing\fewlarge\low\fewlarge_partialViewing_low_firehydrant5.png,mask_img/000000028698.png,experiment,p,p,789.6069713000034
V3,24,24,Female,Right,194,Block 2,0.7486152999917977,0.025,true,tree,tree,occlusion,control,mask,partial viewing,many small,Stimulus\all_stim\occlusion\partialviewing\manysmall\control\manysmall_partialViewing_control_tree8.png,mask_img/000000041577.png,experiment,r,r,791.2474479000084
V3,24,24,Female,Right,195,Block 2,1.2519137999915984,0.1,false,tree,bird,occlusion,low,mask,partial viewing,many small,Stimulus\all_stim\occlusion\partialviewing\manysmall\low\manysmall_partialViewing_low_tree10.png,mask_img/000000062716.png,experiment,u,r,793.1912677000219
V3,24,24,Female,Right,196,Block 2,0.8722315000195522,0.025,true,cat,cat,occlusion,high,mask,partial viewing,few large,Stimulus\all_stim\occlusion\partialviewing\fewlarge\high\fewlarge_partialViewing_high_cat1.png,mask_img/000000017183.png,experiment,i,i,795.1036675000214
V3,24,24,Female,Right,197,Block 2,0.768495600001188,0.1,true,bird,bird,occlusion,low,mask,partial viewing,few large,Stimulus\all_stim\occlusion\partialviewing\fewlarge\low\fewlarge_partialViewing_low_bird6.png,mask_img/000000024247.png,experiment,u,u,796.7672852000105
V3,24,24,Female,Right,198,Block 2,0.7490525000030175,0.05,true,cat,cat,occlusion,control,mask,partial viewing,few large,Stimulus\all_stim\occlusion\partialviewing\fewlarge\control\fewlarge_partialViewing_control_cat7.png,mask_img/000000007325.png,experiment,i,i,798.5432402000006
V3,24,24,Female,Right,199,Block 2,0.6363748000003397,0.1,true,building,building,occlusion,control,mask,partial viewing,many small,Stimulus\all_stim\occlusion\partialviewing\manysmall\control\manysmall_partialViewing_control_building1.png,mask_img/000000035818.png,experiment,q,q,800.0952671999985
V3,24,24,Female,Right,200,Block 2,0.6868231999978889,0.025,true,person,person,occlusion,control,mask,partial viewing,few large,Stimulus\all_stim\occlusion\partialviewing\fewlarge\control\fewlarge_partialViewing_control_person6.png,mask_img/000000009469.png,experiment,o,o,801.7439954000001
V3,24,24,Female,Right,201,Block 2,0.7252941000042483,0.025,true,bus,bus,occlusion,control,mask,partial viewing,many small,Stimulus\all_stim\occlusion\partialviewing\manysmall\control\manysmall_partialViewing_control_bus2.png,mask_img/000000036622.png,experiment,w,w,803.5353103000089
V3,24,24,Female,Right,202,Block 2,0.5925005000026431,0.05,true,firehydrant,firehydrant,occlusion,low,mask,partial viewing,few large,Stimulus\all_stim\occlusion\partialviewing\fewlarge\low\fewlarge_partialViewing_low_firehydrant6.png,mask_img/000000028842.png,experiment,p,p,805.1810342000099
V3,24,24,Female,Right,203,Block 2,0.46853789998567663,0.1,true,firehydrant,firehydrant,occlusion,low,mask,partial viewing,many small,Stimulus\all_stim\occlusion\partialviewing\manysmall\low\manysmall_partialViewing_low_firehydrant5.png,mask_img/000000060623.png,experiment,p,p,806.6987555000233
V3,24,24,Female,Right,204,Block 2,1.8889089000003878,0.05,true,bus,bus,occlusion,low,mask,partial viewing,few large,Stimulus\all_stim\occlusion\partialviewing\fewlarge\low\fewlarge_partialViewing_low_bus2.png,mask_img/000000025858.png,experiment,w,w,809.6721432000049
V3,24,24,Female,Right,205,Block 2,1.2158788999950048,0.1,false,cat,person,occlusion,high,mask,partial viewing,many small,Stimulus\all_stim\occlusion\partialviewing\manysmall\high\manysmall_partialViewing_high_cat8.png,mask_img/000000049763.png,experiment,o,i,811.8081880999962
V3,24,24,Female,Right,206,Block 2,0.5432996999879833,0.05,true,bus,bus,occlusion,control,mask,partial viewing,many small,Stimulus\all_stim\occlusion\partialviewing\manysmall\control\manysmall_partialViewing_control_bus5.png,mask_img/000000037140.png,experiment,w,w,813.4683402000228
V3,24,24,Female,Right,207,Block 2,0.9338055000116583,0.1,true,person,person,occlusion,high,mask,partial viewing,many small,Stimulus\all_stim\occlusion\partialviewing\manysmall\high\manysmall_partialViewing_high_person6.png,mask_img/000000052426.png,experiment,o,o,815.3520509000227
V3,24,24,Female,Right,208,Block 2,0.568745000025956,0.1,true,person,person,occlusion,control,mask,partial viewing,many small,Stimulus\all_stim\occlusion\partialviewing\manysmall\control\manysmall_partialViewing_control_person3.png,mask_img/000000040008.png,experiment,o,o,817.0866694000142
V3,24,24,Female,Right,209,Block 2,0.8224363999906927,0.025,true,cat,cat,occlusion,control,mask,partial viewing,many small,Stimulus\all_stim\occlusion\partialviewing\manysmall\control\manysmall_partialViewing_control_cat6.png,mask_img/000000038753.png,experiment,i,i,818.6638310000126
V3,24,24,Female,Right,210,Block 2,0.7501130999880843,0.025,true,bus,bus,occlusion,low,mask,partial viewing,few large,Stimulus\all_stim\occlusion\partialviewing\fewlarge\low\fewlarge_partialViewing_low_bus5.png,mask_img/000000026497.png,experiment,w,w,820.2562863000203
V3,24,24,Female,Right,211,Block 2,0.6458789999887813,0.1,true,person,person,occlusion,control,mask,partial viewing,few large,Stimulus\all_stim\occlusion\partialviewing\fewlarge\control\fewlarge_partialViewing_control_person4.png,mask_img/000000009178.png,experiment,o,o,821.8561678999977
V3,24,24,Female,Right,212,Block 2,1.1166456999781076,0.05,true,banana,banana,occlusion,low,mask,partial viewing,few large,Stimulus\all_stim\occlusion\partialviewing\fewlarge\low\fewlarge_partialViewing_low_banana3.png,mask_img/000000023004.png,experiment,e,e,823.8714938000194
V3,24,24,Female,Right,213,Block 2,0.7138310000009369,0.05,true,firehydrant,firehydrant,occlusion,control,mask,partial viewing,many small,Stimulus\all_stim\occlusion\partialviewing\manysmall\control\manysmall_partialViewing_control_firehydrant10.png,mask_img/000000039053.png,experiment,p,p,825.6881177000178
V3,24,24,Female,Right,214,Block 2,0.5071051999984775,0.1,true,firehydrant,firehydrant,occlusion,low,mask,partial viewing,few large,Stimulus\all_stim\occlusion\partialviewing\fewlarge\low\fewlarge_partialViewing_low_firehydrant8.png,mask_img/000000028988.png,experiment,p,p,826.8919779999997
V3,24,24,Female,Right,215,Block 2,0.6017566999944393,0.1,true,person,person,occlusion,high,mask,partial viewing,few large,Stimulus\all_stim\occlusion\partialviewing\fewlarge\high\fewlarge_partialViewing_high_person1.png,mask_img/000000019759.png,experiment,o,o,828.6260034000152
V3,24,24,Female,Right,216,Block 2,0.6350695999863092,0.05,false,bird,person,occlusion,low,mask,partial viewing,many small,Stimulus\all_stim\occlusion\partialviewing\manysmall\low\manysmall_partialViewing_low_bird10.png,mask_img/000000055733.png,experiment,o,u,830.4243429000198
V3,24,24,Female,Right,217,Block 2,0.5965089999954216,0.05,true,building,building,occlusion,low,mask,partial viewing,many small,Stimulus\all_stim\occlusion\partialviewing\manysmall\low\manysmall_partialViewing_low_building3.png,mask_img/000000057646.png,experiment,q,q,831.7778333000024
V3,24,24,Female,Right,218,Block 2,0.6091190000006463,0.1,false,cat,person,occlusion,high,mask,partial viewing,few large,Stimulus\all_stim\occlusion\partialviewing\fewlarge\high\fewlarge_partialViewing_high_cat3.png,mask_img/000000017356.png,experiment,o,i,833.4291374000022
V3,24,24,Female,Right,219,Block 2,0.6794867000135127,0.1,true,cat,cat,occlusion,low,mask,partial viewing,many small,Stimulus\all_stim\occlusion\partialviewing\manysmall\low\manysmall_partialViewing_low_cat9.png,mask_img/000000060387.png,experiment,i,i,835.0131332000019
V3,24,24,Female,Right,220,Block 2,0.6363865000021178,0.025,true,bus,bus,occlusion,low,mask,partial viewing,few large,Stimulus\all_stim\occlusion\partialviewing\fewlarge\low\fewlarge_partialViewing_low_bus6.png,mask_img/000000026503.png,experiment,w,w,836.6715428000025
V3,24,24,Female,Right,221,Block 2,1.0332232000073418,0.1,true,building,building,occlusion,low,mask,partial viewing,few large,Stimulus\all_stim\occlusion\partialviewing\fewlarge\low\fewlarge_partialViewing_low_building5.png,mask_img/000000025034.png,experiment,q,q,838.6558956000081
V3,24,24,Female,Right,222,Block 2,1.2491961999912746,0.05,true,cat,cat,occlusion,low,mask,partial viewing,few large,Stimulus\all_stim\occlusion\partialviewing\fewlarge\low\fewlarge_partialViewing_low_cat7.png,mask_img/000000027890.png,experiment,i,i,840.855790600006
V3,24,24,Female,Right,223,Block 2,1.0689056999981403,0.025,false,tree,cat,occlusion,high,mask,partial viewing,many small,Stimulus\all_stim\occlusion\partialviewing\manysmall\high\manysmall_partialViewing_high_tree8.png,mask_img/000000054334.png,experiment,i,r,843.0476800000179
V3,24,24,Female,Right,224,Block 2,0.9356184000207577,0.1,true,person,person,occlusion,low,mask,partial viewing,few large,Stimulus\all_stim\occlusion\partialviewing\fewlarge\low\fewlarge_partialViewing_low_person5.png,mask_img/000000029964.png,experiment,o,o,844.7435894000228
V3,24,24,Female,Right,225,Block 2,0.7552349999896251,0.05,true,person,person,occlusion,low,mask,partial viewing,many small,Stimulus\all_stim\occlusion\partialviewing\manysmall\low\manysmall_partialViewing_low_person1.png,mask_img/000000061780.png,experiment,o,o,846.3197681000165
V3,24,24,Female,Right,226,Block 2,0.7373505999858025,0.1,true,bus,bus,occlusion,high,mask,partial viewing,few large,Stimulus\all_stim\occlusion\partialviewing\fewlarge\high\fewlarge_partialViewing_high_bus3.png,mask_img/000000015908.png,experiment,w,w,847.9920736000058
V3,24,24,Female,Right,227,Block 2,1.5904482000041753,0.1,true,banana,banana,occlusion,low,mask,partial viewing,many small,Stimulus\all_stim\occlusion\partialviewing\manysmall\low\manysmall_partialViewing_low_banana10.png,mask_img/000000054723.png,experiment,e,e,850.6316883999971
V3,24,24,Female,Right,228,Block 2,0.7942763000028208,0.1,false,bus,building,occlusion,high,mask,partial viewing,few large,Stimulus\all_stim\occlusion\partialviewing\fewlarge\high\fewlarge_partialViewing_high_bus7.png,mask_img/000000016238.png,experiment,q,w,852.4156003000098
V3,24,24,Female,Right,229,Block 2,1.1836130000010598,0.1,false,cat,person,occlusion,low,mask,partial viewing,few large,Stimulus\all_stim\occlusion\partialviewing\fewlarge\low\fewlarge_partialViewing_low_cat8.png,mask_img/000000028171.png,experiment,o,i,854.7599453000003
V3,24,24,Female,Right,230,Block 2,0.9534289999864995,0.025,true,building,building,occlusion,low,mask,partial viewing,many small,Stimulus\all_stim\occlusion\partialviewing\manysmall\low\manysmall_partialViewing_low_building9.png,mask_img/000000058102.png,experiment,q,q,856.5842892000219
V3,24,24,Female,Right,231,Block 2,1.1264141999999993,0.025,true,tree,tree,occlusion,control,mask,partial viewing,few large,Stimulus\all_stim\occlusion\partialviewing\fewlarge\control\fewlarge_partialViewing_control_tree4.png,mask_img/000000010969.png,experiment,r,r,858.4569303000171
V3,24,24,Female,Right,232,Block 2,1.5138401000003796,0.025,true,building,building,occlusion,control,mask,partial viewing,few large,Stimulus\all_stim\occlusion\partialviewing\fewlarge\control\fewlarge_partialViewing_control_building4.png,mask_img/000000004239.png,experiment,q,q,861.1200340000214
V3,24,24,Female,Right,233,Block 2,1.4407355999865104,0.1,true,bird,bird,occlusion,control,mask,partial viewing,many small,Stimulus\all_stim\occlusion\partialviewing\manysmall\control\manysmall_partialViewing_control_bird1.png,mask_img/000000034113.png,experiment,u,u,863.256034400023
V3,24,24,Female,Right,234,Block 2,0.738159500004258,0.025,true,bird,bird,occlusion,control,mask,partial viewing,many small,Stimulus\all_stim\occlusion\partialviewing\manysmall\control\manysmall_partialViewing_control_bird9.png,mask_img/000000035514.png,experiment,u,u,864.736246000015
V3,24,24,Female,Right,235,Block 2,0.6864533000043593,0.025,true,firehydrant,firehydrant,occlusion,control,mask,partial viewing,many small,Stimulus\all_stim\occlusion\partialviewing\manysmall\control\manysmall_partialViewing_control_firehydrant9.png,mask_img/000000039643.png,experiment,p,p,866.2318834000034
V3,24,24,Female,Right,236,Block 2,0.7635337999963667,0.025,true,tree,tree,occlusion,control,mask,partial viewing,many small,Stimulus\all_stim\occlusion\partialviewing\manysmall\control\manysmall_partialViewing_control_tree4.png,mask_img/000000041022.png,experiment,r,r,867.6881144000217
V3,24,24,Female,Right,237,Block 2,0.5550906000135001,0.025,true,firehydrant,firehydrant,occlusion,control,mask,partial viewing,few large,Stimulus\all_stim\occlusion\partialviewing\fewlarge\control\fewlarge_partialViewing_control_firehydrant4.png,mask_img/000000007952.png,experiment,p,p,869.0123284000147
V3,24,24,Female,Right,238,Block 2,0.5234510999871418,0.025,true,firehydrant,firehydrant,occlusion,high,mask,partial viewing,few large,Stimulus\all_stim\occlusion\partialviewing\fewlarge\high\fewlarge_partialViewing_high_firehydrant8.png,mask_img/000000019528.png,experiment,p,p,870.5633611000085
V3,24,24,Female,Right,239,Block 2,0.8792787000129465,0.1,true,bird,bird,occlusion,control,mask,partial viewing,many small,Stimulus\all_stim\occlusion\partialviewing\manysmall\control\manysmall_partialViewing_control_bird7.png,mask_img/000000035132.png,experiment,u,u,872.5035593000066
V3,24,24,Female,Right,240,Block 2,0.5753690999990795,0.025,true,firehydrant,firehydrant,occlusion,low,mask,partial viewing,few large,Stimulus\all_stim\occlusion\partialviewing\fewlarge\low\fewlarge_partialViewing_low_firehydrant1.png,mask_img/000000028304.png,experiment,p,p,873.9812263000058
V3,24,24,Female,Right,241,Block 2,1.520280400000047,0.025,false,banana,cat,occlusion,low,mask,partial viewing,many small,Stimulus\all_stim\occlusion\partialviewing\manysmall\low\manysmall_partialViewing_low_banana7.png,mask_img/000000055594.png,experiment,i,e,876.2479862000037
V3,24,24,Female,Right,242,Block 2,0.7185778999992181,0.05,true,cat,cat,occlusion,control,mask,partial viewing,few large,Stimulus\all_stim\occlusion\partialviewing\fewlarge\control\fewlarge_partialViewing_control_cat4.png,mask_img/000000006842.png,experiment,i,i,877.7834930000245
V3,24,24,Female,Right,243,Block 2,0.8379578000167385,0.1,true,building,building,occlusion,high,mask,partial viewing,few large,Stimulus\all_stim\occlusion\partialviewing\fewlarge\high\fewlarge_partialViewing_high_building9.png,mask_img/000000015619.png,experiment,q,q,879.6963279000192
V3,24,24,Female,Right,244,Block 2,1.301902200008044,0.025,true,banana,banana,occlusion,high,mask,partial viewing,few large,Stimulus\all_stim\occlusion\partialviewing\fewlarge\high\fewlarge_partialViewing_high_banana9.png,mask_img/000000012999.png,experiment,e,e,881.9201721000136
V3,24,24,Female,Right,245,Block 2,0.7728669999924023,0.1,true,bus,bus,occlusion,low,mask,partial viewing,many small,Stimulus\all_stim\occlusion\partialviewing\manysmall\low\manysmall_partialViewing_low_bus2.png,mask_img/000000058627.png,experiment,w,w,883.6797075000068
V3,24,24,Female,Right,246,Block 2,1.0083118999900762,0.025,true,tree,tree,occlusion,low,mask,partial viewing,few large,Stimulus\all_stim\occlusion\partialviewing\fewlarge\low\fewlarge_partialViewing_low_tree1.png,mask_img/000000031053.png,experiment,r,r,885.3681028000137
V3,24,24,Female,Right,247,Block 2,0.6229885999928229,0.05,true,tree,tree,occlusion,low,mask,partial viewing,many small,Stimulus\all_stim\occlusion\partialviewing\manysmall\low\manysmall_partialViewing_low_tree6.png,mask_img/000000063715.png,experiment,r,r,886.936701300001
V3,24,24,Female,Right,248,Block 2,1.0515198000066448,0.05,true,bird,bird,occlusion,high,mask,partial viewing,few large,Stimulus\all_stim\occlusion\partialviewing\fewlarge\high\fewlarge_partialViewing_high_bird8.png,mask_img/000000014168.png,experiment,u,u,888.6797591000213
V3,24,24,Female,Right,249,Block 2,1.1129935999924783,0.1,true,bus,bus,occlusion,low,mask,partial viewing,many small,Stimulus\all_stim\occlusion\partialviewing\manysmall\low\manysmall_partialViewing_low_bus1.png,mask_img/000000058232.png,experiment,w,w,890.8481220000249
V3,24,24,Female,Right,250,Block 2,0.6775721999874804,0.1,true,building,building,occlusion,control,mask,partial viewing,few large,Stimulus\all_stim\occlusion\partialviewing\fewlarge\control\fewlarge_partialViewing_control_building7.png,mask_img/000000004936.png,experiment,q,q,892.6741773000103
V3,24,24,Female,Right,251,Block 2,0.5562767999945208,0.1,false,bus,building,occlusion,high,mask,partial viewing,many small,Stimulus\all_stim\occlusion\partialviewing\manysmall\high\manysmall_partialViewing_high_bus4.png,mask_img/000000047316.png,experiment,q,w,893.9245272999979
V3,24,24,Female,Right,252,Block 2,1.054852100001881,0.025,true,bird,bird,occlusion,low,mask,partial viewing,few large,Stimulus\all_stim\occlusion\partialviewing\fewlarge\low\fewlarge_partialViewing_low_bird4.png,mask_img/000000024193.png,experiment,u,u,895.6883782000223
V3,24,24,Female,Right,253,Block 2,1.0323960999958217,0.05,false,firehydrant,bird,occlusion,low,mask,partial viewing,many small,Stimulus\all_stim\occlusion\partialviewing\manysmall\low\manysmall_partialViewing_low_firehydrant6.png,mask_img/000000060647.png,experiment,u,p,897.5778417999973
V3,24,24,Female,Right,254,Block 2,1.4402167000225745,0.1,true,person,person,occlusion,high,mask,partial viewing,many small,Stimulus\all_stim\occlusion\partialviewing\manysmall\high\manysmall_partialViewing_high_person3.png,mask_img/000000051880.png,experiment,o,o,900.1681477000238
V3,24,24,Female,Right,255,Block 2,0.9403304000152275,0.05,false,building,bus,occlusion,high,mask,partial viewing,many small,Stimulus\all_stim\occlusion\partialviewing\manysmall\high\manysmall_partialViewing_high_building4.png,mask_img/000000046025.png,experiment,w,q,902.2560096000088
V3,24,24,Female,Right,256,Block 2,0.724467200023355,0.05,true,bus,bus,occlusion,low,mask,partial viewing,many small,Stimulus\all_stim\occlusion\partialviewing\manysmall\low\manysmall_partialViewing_low_bus6.png,mask_img/000000058815.png,experiment,w,w,904.1122016000154
V3,24,24,Female,Right,257,Block 2,0.5641956999897957,0.05,true,bus,bus,occlusion,control,mask,partial viewing,few large,Stimulus\all_stim\occlusion\partialviewing\fewlarge\control\fewlarge_partialViewing_control_bus5.png,mask_img/000000005615.png,experiment,w,w,905.5304459000181
V3,24,24,Female,Right,258,Block 2,0.9254549000179395,0.05,true,bird,bird,occlusion,control,mask,partial viewing,many small,Stimulus\all_stim\occlusion\partialviewing\manysmall\control\manysmall_partialViewing_control_bird7.png,mask_img/000000035132.png,experiment,u,u,907.3038835000189
V3,24,24,Female,Right,259,Block 2,0.6907272000098601,0.1,true,building,building,occlusion,low,mask,partial viewing,many small,Stimulus\all_stim\occlusion\partialviewing\manysmall\low\manysmall_partialViewing_low_building1.png,mask_img/000000056716.png,experiment,q,q,908.9997697000217
V3,24,24,Female,Right,260,Block 2,1.0025795999972615,0.05,true,tree,tree,occlusion,low,mask,partial viewing,few large,Stimulus\all_stim\occlusion\partialviewing\fewlarge\low\fewlarge_partialViewing_low_tree1.png,mask_img/000000031053.png,experiment,r,r,911.040329600015
V3,24,24,Female,Right,261,Block 2,0.797102900018217,0.05,false,banana,bus,occlusion,low,mask,partial viewing,few large,Stimulus\all_stim\occlusion\partialviewing\fewlarge\low\fewlarge_partialViewing_low_banana8.png,mask_img/000000023656.png,experiment,w,e,912.6082616000203
V3,24,24,Female,Right,262,Block 2,1.3382584999781102,0.1,true,cat,cat,occlusion,high,mask,partial viewing,many small,Stimulus\all_stim\occlusion\partialviewing\manysmall\high\manysmall_partialViewing_high_cat2.png,mask_img/000000049092.png,experiment,i,i,915.0726750000031
V3,24,24,Female,Right,263,Block 2,1.010533699998632,0.025,true,cat,cat,occlusion,high,mask,partial viewing,many small,Stimulus\all_stim\occlusion\partialviewing\manysmall\high\manysmall_partialViewing_high_cat4.png,mask_img/000000049331.png,experiment,i,i,916.7686366999988
V3,24,24,Female,Right,264,Block 2,0.9667808000231162,0.05,false,cat,bird,occlusion,low,mask,partial viewing,many small,Stimulus\all_stim\occlusion\partialviewing\manysmall\low\manysmall_partialViewing_low_cat8.png,mask_img/000000060245.png,experiment,u,i,918.8001439000072
V3,24,24,Female,Right,265,Block 2,0.5949889000039548,0.1,true,bird,bird,occlusion,control,mask,partial viewing,few large,Stimulus\all_stim\occlusion\partialviewing\fewlarge\control\fewlarge_partialViewing_control_bird2.png,mask_img/000000001647.png,experiment,u,u,920.1708960000251
V3,24,24,Female,Right,266,Block 2,0.7541161999979522,0.025,true,tree,tree,occlusion,control,mask,partial viewing,few large,Stimulus\all_stim\occlusion\partialviewing\fewlarge\control\fewlarge_partialViewing_control_tree9.png,mask_img/000000011701.png,experiment,r,r,921.7281023999967
V3,24,24,Female,Right,267,Block 2,0.8468239000067115,0.05,false,firehydrant,bus,occlusion,high,mask,partial viewing,many small,Stimulus\all_stim\occlusion\partialviewing\manysmall\high\manysmall_partialViewing_high_firehydrant6.png,mask_img/000000050782.png,experiment,w,p,923.6167098000005
V3,24,24,Female,Right,268,Block 2,0.9234067999932449,0.025,true,bird,bird,occlusion,low,mask,partial viewing,many small,Stimulus\all_stim\occlusion\partialviewing\manysmall\low\manysmall_partialViewing_low_bird8.png,mask_img/000000056137.png,experiment,u,u,925.5681370000239
V3,24,24,Female,Right,269,Block 2,0.9091746999765746,0.1,true,person,person,occlusion,low,mask,partial viewing,few large,Stimulus\all_stim\occlusion\partialviewing\fewlarge\low\fewlarge_partialViewing_low_person4.png,mask_img/000000029730.png,experiment,o,o,927.2559894000005
V3,24,24,Female,Right,270,Block 2,1.2680022999993525,0.025,false,firehydrant,bus,occlusion,low,mask,partial viewing,many small,Stimulus\all_stim\occlusion\partialviewing\manysmall\low\manysmall_partialViewing_low_firehydrant7.png,mask_img/000000061084.png,experiment,w,p,929.3922895000142
V3,24,24,Female,Right,271,Block 2,1.3111058000067715,0.05,true,banana,banana,occlusion,high,mask,partial viewing,few large,Stimulus\all_stim\occlusion\partialviewing\fewlarge\high\fewlarge_partialViewing_high_banana2.png,mask_img/000000012179.png,experiment,e,e,931.4881108000118
V3,24,24,Female,Right,272,Block 2,0.9452532000141218,0.025,true,bus,bus,occlusion,high,mask,partial viewing,many small,Stimulus\all_stim\occlusion\partialviewing\manysmall\high\manysmall_partialViewing_high_bus8.png,mask_img/000000048169.png,experiment,w,w,933.576570300007
V3,24,24,Female,Right,273,Block 2,0.9139332000049762,0.1,true,bird,bird,occlusion,high,mask,partial viewing,many small,Stimulus\all_stim\occlusion\partialviewing\manysmall\high\manysmall_partialViewing_high_bird7.png,mask_img/000000044580.png,experiment,u,u,935.2317355000123
V3,24,24,Female,Right,274,Block 2,0.8207746999978554,0.025,false,banana,bird,occlusion,high,mask,partial viewing,many small,Stimulus\all_stim\occlusion\partialviewing\manysmall\high\manysmall_partialViewing_high_banana9.png,mask_img/000000043579.png,experiment,u,e,936.7281331999984
V3,24,24,Female,Right,275,Block 2,0.7437221999862231,0.025,true,building,building,occlusion,high,mask,partial viewing,many small,Stimulus\all_stim\occlusion\partialviewing\manysmall\high\manysmall_partialViewing_high_building9.png,mask_img/000000046345.png,experiment,q,q,938.1762607000128
V3,24,24,Female,Right,276,Block 2,0.8354382999823429,0.05,true,tree,tree,occlusion,low,mask,partial viewing,few large,Stimulus\all_stim\occlusion\partialviewing\fewlarge\low\fewlarge_partialViewing_low_tree4.png,mask_img/000000032364.png,experiment,r,r,939.8163399000186
V3,24,24,Female,Right,277,Block 2,0.6535315999935847,0.025,true,firehydrant,firehydrant,occlusion,control,mask,partial viewing,many small,Stimulus\all_stim\occlusion\partialviewing\manysmall\control\manysmall_partialViewing_control_firehydrant1.png,mask_img/000000039012.png,experiment,p,p,941.4562710000027
V3,24,24,Female,Right,278,Block 2,0.7228560999792535,0.025,true,building,building,occlusion,low,mask,partial viewing,few large,Stimulus\all_stim\occlusion\partialviewing\fewlarge\low\fewlarge_partialViewing_low_building9.png,mask_img/000000025516.png,experiment,q,q,942.9439347000152
V3,24,24,Female,Right,279,Block 2,1.9213372000085656,0.1,true,cat,cat,occlusion,low,mask,partial viewing,few large,Stimulus\all_stim\occlusion\partialviewing\fewlarge\low\fewlarge_partialViewing_low_cat1.png,mask_img/000000027151.png,experiment,i,i,946.0323348000238
V3,24,24,Female,Right,280,Block 2,0.5922328000015114,0.025,true,building,building,occlusion,low,mask,partial viewing,few large,Stimulus\all_stim\occlusion\partialviewing\fewlarge\low\fewlarge_partialViewing_low_building6.png,mask_img/000000025143.png,experiment,q,q,947.6346583999984
V3,24,24,Female,Right,281,Block 2,0.8303012000105809,0.1,true,bird,bird,occlusion,low,mask,partial viewing,many small,Stimulus\all_stim\occlusion\partialviewing\manysmall\low\manysmall_partialViewing_low_bird8.png,mask_img/000000056137.png,experiment,u,u,949.3284224000236
V3,24,24,Female,Right,282,Block 2,1.588706499984255,0.025,true,cat,cat,occlusion,control,mask,partial viewing,few large,Stimulus\all_stim\occlusion\partialviewing\fewlarge\control\fewlarge_partialViewing_control_cat10.png,mask_img/000000006481.png,experiment,i,i,952.0648545000004
V3,24,24,Female,Right,283,Block 2,0.6547126999939792,0.05,true,tree,tree,occlusion,control,mask,partial viewing,many small,Stimulus\all_stim\occlusion\partialviewing\manysmall\control\manysmall_partialViewing_control_tree9.png,mask_img/000000041840.png,experiment,r,r,953.8806782000174
V3,24,24,Female,Right,284,Block 2,0.834773500013398,0.05,true,person,person,occlusion,low,mask,partial viewing,many small,Stimulus\all_stim\occlusion\partialviewing\manysmall\low\manysmall_partialViewing_low_person7.png,mask_img/000000062350.png,experiment,o,o,955.5280810999975
V3,24,24,Female,Right,285,Block 2,0.6304345999960788,0.1,true,firehydrant,firehydrant,occlusion,high,mask,partial viewing,few large,Stimulus\all_stim\occlusion\partialviewing\fewlarge\high\fewlarge_partialViewing_high_firehydrant8.png,mask_img/000000019528.png,experiment,p,p,957.272913200024
V3,24,24,Female,Right,286,Block 2,0.6736796000041068,0.05,true,bus,bus,occlusion,control,mask,partial viewing,few large,Stimulus\all_stim\occlusion\partialviewing\fewlarge\control\fewlarge_partialViewing_control_bus6.png,mask_img/000000005862.png,experiment,w,w,958.6554225000145
V3,24,24,Female,Right,287,Block 2,0.7082129000045825,0.025,false,bus,building,occlusion,high,mask,partial viewing,few large,Stimulus\all_stim\occlusion\partialviewing\fewlarge\high\fewlarge_partialViewing_high_bus2.png,mask_img/000000015862.png,experiment,q,w,960.0571521000238
V3,24,24,Female,Right,288,Block 2,0.8198168999806512,0.05,false,firehydrant,bus,occlusion,high,mask,partial viewing,many small,Stimulus\all_stim\occlusion\partialviewing\manysmall\high\manysmall_partialViewing_high_firehydrant10.png,mask_img/000000050148.png,experiment,w,p,991.5208007000037
V3,24,24,Female,Right,289,Block 3,1.0880559999786783,0.05,true,bird,bird,occlusion,high,mask,partial viewing,many small,Stimulus\all_stim\occlusion\partialviewing\manysmall\high\manysmall_partialViewing_high_bird9.png,mask_img/000000044946.png,experiment,u,u,993.336987000017
V3,24,24,Female,Right,290,Block 3,0.7297841999970842,0.05,false,person,bird,occlusion,high,mask,partial viewing,many small,Stimulus\all_stim\occlusion\partialviewing\manysmall\high\manysmall_partialViewing_high_person1.png,mask_img/000000051310.png,experiment,u,o,995.1445741000061
V3,24,24,Female,Right,291,Block 3,0.5610103000071831,0.1,false,person,bird,occlusion,high,mask,partial viewing,many small,Stimulus\all_stim\occlusion\partialviewing\manysmall\high\manysmall_partialViewing_high_person1.png,mask_img/000000051310.png,experiment,u,o,996.7421858000162
V3,24,24,Female,Right,292,Block 3,0.6486060999741312,0.1,true,tree,tree,occlusion,control,mask,partial viewing,few large,Stimulus\all_stim\occlusion\partialviewing\fewlarge\control\fewlarge_partialViewing_control_tree1.png,mask_img/000000010281.png,experiment,r,r,998.5435025000188
V3,24,24,Female,Right,293,Block 3,0.8128025000041816,0.05,false,banana,tree,occlusion,low,mask,partial viewing,many small,Stimulus\all_stim\occlusion\partialviewing\manysmall\low\manysmall_partialViewing_low_banana6.png,mask_img/000000055460.png,experiment,r,e,1000.1846028
V3,24,24,Female,Right,294,Block 3,1.2596114999905694,0.1,true,cat,cat,occlusion,control,mask,partial viewing,few large,Stimulus\all_stim\occlusion\partialviewing\fewlarge\control\fewlarge_partialViewing_control_cat1.png,mask_img/000000006437.png,experiment,i,i,1002.472969000024
V3,24,24,Female,Right,295,Block 3,0.9314220999949612,0.05,true,person,person,occlusion,low,mask,partial viewing,many small,Stimulus\all_stim\occlusion\partialviewing\manysmall\low\manysmall_partialViewing_low_person8.png,mask_img/000000062420.png,experiment,o,o,1004.1365982000134
V3,24,24,Female,Right,296,Block 3,1.1008910999807995,0.025,false,cat,person,occlusion,high,mask,partial viewing,many small,Stimulus\all_stim\occlusion\partialviewing\manysmall\high\manysmall_partialViewing_high_cat8.png,mask_img/000000049763.png,experiment,o,i,1006.0481542000198
V3,24,24,Female,Right,297,Block 3,0.5890897000208497,0.05,true,firehydrant,firehydrant,occlusion,control,mask,partial viewing,few large,Stimulus\all_stim\occlusion\partialviewing\fewlarge\control\fewlarge_partialViewing_control_firehydrant9.png,mask_img/000000008329.png,experiment,p,p,1007.3639975000115
V3,24,24,Female,Right,298,Block 3,0.5059944999811705,0.1,true,building,building,occlusion,high,mask,partial viewing,few large,Stimulus\all_stim\occlusion\partialviewing\fewlarge\high\fewlarge_partialViewing_high_building7.png,mask_img/000000015155.png,experiment,q,q,1008.8313779000018
V3,24,24,Female,Right,299,Block 3,0.5380208999849856,0.1,true,building,building,occlusion,low,mask,partial viewing,many small,Stimulus\all_stim\occlusion\partialviewing\manysmall\low\manysmall_partialViewing_low_building8.png,mask_img/000000058073.png,experiment,q,q,1010.5324427000014
V3,24,24,Female,Right,300,Block 3,1.3939782000088599,0.025,true,bus,bus,occlusion,high,mask,partial viewing,few large,Stimulus\all_stim\occlusion\partialviewing\fewlarge\high\fewlarge_partialViewing_high_bus8.png,mask_img/000000016715.png,experiment,w,w,1012.9363408000208
V3,24,24,Female,Right,301,Block 3,1.540415800001938,0.025,false,cat,person,occlusion,control,mask,partial viewing,few large,Stimulus\all_stim\occlusion\partialviewing\fewlarge\control\fewlarge_partialViewing_control_cat6.png,mask_img/000000007179.png,experiment,o,i,1015.2170794999984
V3,24,24,Female,Right,302,Block 3,1.086421199986944,0.025,true,bird,bird,occlusion,high,mask,partial viewing,many small,Stimulus\all_stim\occlusion\partialviewing\manysmall\high\manysmall_partialViewing_high_bird7.png,mask_img/000000044580.png,experiment,u,u,1017.0167364000226
V3,24,24,Female,Right,303,Block 3,1.2167453999863937,0.1,true,cat,cat,occlusion,control,mask,partial viewing,many small,Stimulus\all_stim\occlusion\partialviewing\manysmall\control\manysmall_partialViewing_control_cat9.png,mask_img/000000038862.png,experiment,i,i,1019.3601396000013
V3,24,24,Female,Right,304,Block 3,0.9783809999935329,0.1,true,bird,bird,occlusion,low,mask,partial viewing,many small,Stimulus\all_stim\occlusion\partialviewing\manysmall\low\manysmall_partialViewing_low_bird7.png,mask_img/000000056036.png,experiment,u,u,1021.3209337000153
V3,24,24,Female,Right,305,Block 3,0.8224246999889147,0.05,true,tree,tree,occlusion,low,mask,partial viewing,few large,Stimulus\all_stim\occlusion\partialviewing\fewlarge\low\fewlarge_partialViewing_low_tree6.png,mask_img/000000032720.png,experiment,r,r,1023.2248096000112
V3,24,24,Female,Right,306,Block 3,0.599987699999474,0.05,true,building,building,occlusion,control,mask,partial viewing,few large,Stimulus\all_stim\occlusion\partialviewing\fewlarge\control\fewlarge_partialViewing_control_building10.png,mask_img/000000003225.png,experiment,q,q,1024.8893261000048
V3,24,24,Female,Right,307,Block 3,0.7218997999734711,0.025,true,firehydrant,firehydrant,occlusion,low,mask,partial viewing,many small,Stimulus\all_stim\occlusion\partialviewing\manysmall\low\manysmall_partialViewing_low_firehydrant10.png,mask_img/000000060529.png,experiment,p,p,1026.4406216000207
V3,24,24,Female,Right,308,Block 3,0.5931791999901179,0.1,true,bus,bus,occlusion,control,mask,partial viewing,many small,Stimulus\all_stim\occlusion\partialviewing\manysmall\control\manysmall_partialViewing_control_bus5.png,mask_img/000000037140.png,experiment,w,w,1027.9914419999986
V3,24,24,Female,Right,309,Block 3,0.7157173000159673,0.1,true,person,person,occlusion,low,mask,partial viewing,many small,Stimulus\all_stim\occlusion\partialviewing\manysmall\low\manysmall_partialViewing_low_person8.png,mask_img/000000062420.png,experiment,o,o,1029.8165850000223
V3,24,24,Female,Right,310,Block 3,0.6541692999890074,0.1,true,bus,bus,occlusion,control,mask,partial viewing,many small,Stimulus\all_stim\occlusion\partialviewing\manysmall\control\manysmall_partialViewing_control_bus8.png,mask_img/000000037782.png,experiment,w,w,1031.5093431000132
V3,24,24,Female,Right,311,Block 3,1.4169574000115972,0.05,true,cat,cat,occlusion,high,mask,partial viewing,few large,Stimulus\all_stim\occlusion\partialviewing\fewlarge\high\fewlarge_partialViewing_high_cat3.png,mask_img/000000017356.png,experiment,i,i,1033.8642044000153
V3,24,24,Female,Right,312,Block 3,0.9783851999964099,0.025,false,firehydrant,building,occlusion,high,mask,partial viewing,many small,Stimulus\all_stim\occlusion\partialviewing\manysmall\high\manysmall_partialViewing_high_firehydrant3.png,mask_img/000000050276.png,experiment,q,p,1035.9773799999966
V3,24,24,Female,Right,313,Block 3,0.5189802000240888,0.05,true,building,building,occlusion,high,mask,partial viewing,many small,Stimulus\all_stim\occlusion\partialviewing\manysmall\high\manysmall_partialViewing_high_building2.png,mask_img/000000045306.png,experiment,q,q,1037.3291564999963
V3,24,24,Female,Right,314,Block 3,0.5244076000235509,0.1,true,building,building,occlusion,low,mask,partial viewing,few large,Stimulus\all_stim\occlusion\partialviewing\fewlarge\low\fewlarge_partialViewing_low_building8.png,mask_img/000000025453.png,experiment,q,q,1038.8963534000213
V3,24,24,Female,Right,315,Block 3,1.3619891999987885,0.1,true,tree,tree,occlusion,high,mask,partial viewing,many small,Stimulus\all_stim\occlusion\partialviewing\manysmall\high\manysmall_partialViewing_high_tree10.png,mask_img/000000052818.png,experiment,r,r,1041.1213646999968
V3,24,24,Female,Right,316,Block 3,0.7880428999778815,0.1,true,person,person,occlusion,control,mask,partial viewing,many small,Stimulus\all_stim\occlusion\partialviewing\manysmall\control\manysmall_partialViewing_control_person6.png,mask_img/000000040325.png,experiment,o,o,1042.7527842000127
V3,24,24,Female,Right,317,Block 3,1.1490123000112362,0.05,true,cat,cat,occlusion,high,mask,partial viewing,many small,Stimulus\all_stim\occlusion\partialviewing\manysmall\high\manysmall_partialViewing_high_cat6.png,mask_img/000000049562.png,experiment,i,i,1044.8960807000112
V3,24,24,Female,Right,318,Block 3,0.656032500002766,0.1,true,bus,bus,occlusion,high,mask,partial viewing,few large,Stimulus\all_stim\occlusion\partialviewing\fewlarge\high\fewlarge_partialViewing_high_bus1.png,mask_img/000000015645.png,experiment,w,w,1046.5334026000055
V3,24,24,Female,Right,319,Block 3,0.6252400999946985,0.025,true,firehydrant,firehydrant,occlusion,control,mask,partial viewing,few large,Stimulus\all_stim\occlusion\partialviewing\fewlarge\control\fewlarge_partialViewing_control_firehydrant1.png,mask_img/000000007740.png,experiment,p,p,1048.248707300023
