pt_num,Age,Gender,Handedness,trial_nbr,block_number,rt,soa,acc,category,choiced_category,manipulation,difficulty,mask,type_occl,size_occl,filename,mask_filename,task,pressed_key,correct_key,Experiment Duration
2,23,Female,Right,1,Training,3.1689963,0.1,FALSE,person,bird,occlusion,high,mask,partial viewing,few large,Training_Stimulus\fewlarge_partialViewing_high_person189.png,mask_img/000000001997.png,training,q,i,346.2986444
2,23,Female,Right,2,Training,1.7743618,0.025,TRUE,cat,cat,occlusion,control,mask,partial viewing,many small,Training_Stimulus\manysmall_partialViewing_control_cat432.png,mask_img/000000005105.png,training,o,o,349.6125394
2,23,Female,Right,3,Training,1.3491362,0.025,TRUE,firehydrant,firehydrant,occlusion,control,mask,partial viewing,few large,Training_Stimulus\fewlarge_partialViewing_control_firehydrant90.png,mask_img/000000000459.png,training,r,r,352.2687435
2,23,Female,Right,4,Training,2.1021451,0.025,TRUE,bus,bus,occlusion,low,mask,partial viewing,many small,Training_Stimulus\manysmall_partialViewing_low_bus180.png,mask_img/000000006709.png,training,e,e,355.8780395
2,23,Female,Right,5,Training,2.8039367,0.025,FALSE,tree,building,occlusion,control,mask,partial viewing,many small,Training_Stimulus\manysmall_partialViewing_control_tree9.png,mask_img/000000005282.png,training,p,u,360.1592778
2,23,Female,Right,6,Training,1.9095742,0.1,FALSE,bus,bird,occlusion,low,mask,partial viewing,many small,Training_Stimulus\manysmall_partialViewing_low_bus180.png,mask_img/000000006709.png,training,q,e,363.2842803
2,23,Female,Right,7,Training,1.5406239,0.1,TRUE,building,building,occlusion,control,mask,partial viewing,few large,Training_Stimulus\fewlarge_partialViewing_control_building24.png,mask_img/000000000312.png,training,p,p,366.269272
2,23,Female,Right,8,Training,1.3485977,0.025,TRUE,bird,bird,occlusion,control,mask,partial viewing,few large,Training_Stimulus\fewlarge_partialViewing_control_bird4.png,mask_img/000000000109.png,training,q,q,369.2139781
2,23,Female,Right,9,Training,1.1142233,0.1,TRUE,firehydrant,firehydrant,occlusion,control,mask,partial viewing,few large,Training_Stimulus\fewlarge_partialViewing_control_firehydrant90.png,mask_img/000000000459.png,training,r,r,371.5420078
2,23,Female,Right,10,Training,0.9763457,0.1,TRUE,firehydrant,firehydrant,occlusion,low,mask,partial viewing,many small,Training_Stimulus\manysmall_partialViewing_low_firehydrant90.png,mask_img/000000006870.png,training,r,r,373.8950657
2,23,Female,Right,11,Training,1.7885171,0.1,TRUE,cat,cat,occlusion,control,mask,partial viewing,few large,Training_Stimulus\fewlarge_partialViewing_control_cat432.png,mask_img/000000000438.png,training,o,o,377.3950168
2,23,Female,Right,12,Training,2.0157349,0.05,TRUE,bus,bus,occlusion,high,mask,partial viewing,few large,Training_Stimulus\fewlarge_partialViewing_high_bus180.png,mask_img/000000001053.png,training,e,e,380.5982766
2,23,Female,Right,13,Training,1.1993112,0.05,TRUE,building,building,occlusion,control,mask,partial viewing,many small,Training_Stimulus\manysmall_partialViewing_control_building24.png,mask_img/000000004739.png,training,p,p,383.1138587
2,23,Female,Right,14,Training,1.0054445,0.05,TRUE,person,person,occlusion,high,mask,partial viewing,few large,Training_Stimulus\fewlarge_partialViewing_high_person189.png,mask_img/000000001997.png,training,i,i,385.4744263
2,23,Female,Right,1,Block 1,2.057556,0.025,FALSE,banana,building,occlusion,low,mask,partial viewing,many small,Stimulus\all_stim\occlusion\partialviewing\manysmall\low\manysmall_partialViewing_low_banana3.png,mask_img/000000054875.png,experiment,p,w,501.3593429
2,23,Female,Right,2,Block 1,1.2113089,0.025,TRUE,bus,bus,occlusion,low,mask,partial viewing,few large,Stimulus\all_stim\occlusion\partialviewing\fewlarge\low\fewlarge_partialViewing_low_bus1.png,mask_img/000000025820.png,experiment,e,e,503.4551241
2,23,Female,Right,3,Block 1,1.1448941,0.05,TRUE,banana,banana,occlusion,control,mask,partial viewing,many small,Stimulus\all_stim\occlusion\partialviewing\manysmall\control\manysmall_partialViewing_control_banana8.png,mask_img/000000033904.png,experiment,w,w,505.623127
2,23,Female,Right,4,Block 1,1.10168,0.025,TRUE,firehydrant,firehydrant,occlusion,low,mask,partial viewing,few large,Stimulus\all_stim\occlusion\partialviewing\fewlarge\low\fewlarge_partialViewing_low_firehydrant1.png,mask_img/000000028304.png,experiment,r,r,507.8311847
2,23,Female,Right,5,Block 1,1.5004294,0.025,FALSE,building,bus,occlusion,high,mask,partial viewing,few large,Stimulus\all_stim\occlusion\partialviewing\fewlarge\high\fewlarge_partialViewing_high_building10.png,mask_img/000000014428.png,experiment,e,p,510.087153
2,23,Female,Right,6,Block 1,1.1374857,0.05,TRUE,person,person,occlusion,high,mask,partial viewing,many small,Stimulus\all_stim\occlusion\partialviewing\manysmall\high\manysmall_partialViewing_high_person5.png,mask_img/000000052250.png,experiment,i,i,512.3031491
2,23,Female,Right,7,Block 1,1.6149091,0.1,TRUE,bus,bus,occlusion,high,mask,partial viewing,few large,Stimulus\all_stim\occlusion\partialviewing\fewlarge\high\fewlarge_partialViewing_high_bus8.png,mask_img/000000016715.png,experiment,e,e,515.0552308
2,23,Female,Right,8,Block 1,1.3679873,0.1,TRUE,building,building,occlusion,low,mask,partial viewing,many small,Stimulus\all_stim\occlusion\partialviewing\manysmall\low\manysmall_partialViewing_low_building9.png,mask_img/000000058102.png,experiment,p,p,517.5675141
2,23,Female,Right,9,Block 1,1.600692,0.025,TRUE,firehydrant,firehydrant,occlusion,high,mask,partial viewing,many small,Stimulus\all_stim\occlusion\partialviewing\manysmall\high\manysmall_partialViewing_high_firehydrant1.png,mask_img/000000049987.png,experiment,r,r,520.3831488
2,23,Female,Right,10,Block 1,1.6240106,0.1,TRUE,tree,tree,occlusion,control,mask,partial viewing,few large,Stimulus\all_stim\occlusion\partialviewing\fewlarge\control\fewlarge_partialViewing_control_tree10.png,mask_img/000000010414.png,experiment,u,u,523.0553571
2,23,Female,Right,11,Block 1,1.8710274,0.025,TRUE,tree,tree,occlusion,low,mask,partial viewing,few large,Stimulus\all_stim\occlusion\partialviewing\fewlarge\low\fewlarge_partialViewing_low_tree3.png,mask_img/000000031717.png,experiment,u,u,525.6872221
2,23,Female,Right,12,Block 1,1.333655,0.025,TRUE,tree,tree,occlusion,control,mask,partial viewing,few large,Stimulus\all_stim\occlusion\partialviewing\fewlarge\control\fewlarge_partialViewing_control_tree10.png,mask_img/000000010414.png,experiment,u,u,528.1511021
2,23,Female,Right,13,Block 1,0.9709464,0.025,TRUE,building,building,occlusion,high,mask,partial viewing,many small,Stimulus\all_stim\occlusion\partialviewing\manysmall\high\manysmall_partialViewing_high_building1.png,mask_img/000000044950.png,experiment,p,p,529.9671404
2,23,Female,Right,14,Block 1,0.8903127,0.1,TRUE,tree,tree,occlusion,control,mask,partial viewing,many small,Stimulus\all_stim\occlusion\partialviewing\manysmall\control\manysmall_partialViewing_control_tree1.png,mask_img/000000040886.png,experiment,u,u,531.5990886
2,23,Female,Right,15,Block 1,0.5730762,0.05,TRUE,tree,tree,occlusion,high,mask,partial viewing,many small,Stimulus\all_stim\occlusion\partialviewing\manysmall\high\manysmall_partialViewing_high_tree8.png,mask_img/000000054334.png,experiment,u,u,533.2442448
2,23,Female,Right,16,Block 1,0.9899664,0.05,TRUE,bird,bird,occlusion,low,mask,partial viewing,many small,Stimulus\all_stim\occlusion\partialviewing\manysmall\low\manysmall_partialViewing_low_bird2.png,mask_img/000000055737.png,experiment,q,q,535.079003
2,23,Female,Right,17,Block 1,0.8931993,0.1,TRUE,firehydrant,firehydrant,occlusion,low,mask,partial viewing,few large,Stimulus\all_stim\occlusion\partialviewing\fewlarge\low\fewlarge_partialViewing_low_firehydrant10.png,mask_img/000000028367.png,experiment,r,r,536.9030871
2,23,Female,Right,18,Block 1,0.9246272,0.1,FALSE,bus,building,occlusion,high,mask,partial viewing,many small,Stimulus\all_stim\occlusion\partialviewing\manysmall\high\manysmall_partialViewing_high_bus7.png,mask_img/000000047471.png,experiment,p,e,538.8313658
2,23,Female,Right,19,Block 1,0.7978304,0.1,TRUE,tree,tree,occlusion,high,mask,partial viewing,many small,Stimulus\all_stim\occlusion\partialviewing\manysmall\high\manysmall_partialViewing_high_tree1.png,mask_img/000000052784.png,experiment,u,u,540.5432286
2,23,Female,Right,20,Block 1,0.6951802,0.1,TRUE,tree,tree,occlusion,high,mask,partial viewing,many small,Stimulus\all_stim\occlusion\partialviewing\manysmall\high\manysmall_partialViewing_high_tree5.png,mask_img/000000053410.png,experiment,u,u,542.3195947
2,23,Female,Right,21,Block 1,1.2665318,0.1,TRUE,cat,cat,occlusion,high,mask,partial viewing,many small,Stimulus\all_stim\occlusion\partialviewing\manysmall\high\manysmall_partialViewing_high_cat1.png,mask_img/000000048664.png,experiment,o,o,544.287229
2,23,Female,Right,22,Block 1,0.9494048,0.025,TRUE,bus,bus,occlusion,control,mask,partial viewing,many small,Stimulus\all_stim\occlusion\partialviewing\manysmall\control\manysmall_partialViewing_control_bus3.png,mask_img/000000036765.png,experiment,e,e,546.3111178
2,23,Female,Right,23,Block 1,0.8846153,0.1,TRUE,firehydrant,firehydrant,occlusion,low,mask,partial viewing,few large,Stimulus\all_stim\occlusion\partialviewing\fewlarge\low\fewlarge_partialViewing_low_firehydrant5.png,mask_img/000000028698.png,experiment,r,r,548.1834589
2,23,Female,Right,24,Block 1,0.9816778,0.025,TRUE,building,building,occlusion,high,mask,partial viewing,few large,Stimulus\all_stim\occlusion\partialviewing\fewlarge\high\fewlarge_partialViewing_high_building9.png,mask_img/000000015619.png,experiment,p,p,550.2231049
2,23,Female,Right,25,Block 1,0.8243995,0.05,TRUE,tree,tree,occlusion,low,mask,partial viewing,few large,Stimulus\all_stim\occlusion\partialviewing\fewlarge\low\fewlarge_partialViewing_low_tree2.png,mask_img/000000031601.png,experiment,u,u,551.9751804
2,23,Female,Right,26,Block 1,1.076171,0.1,FALSE,banana,bird,occlusion,low,mask,partial viewing,many small,Stimulus\all_stim\occlusion\partialviewing\manysmall\low\manysmall_partialViewing_low_banana9.png,mask_img/000000055652.png,experiment,q,w,554.1751826
2,23,Female,Right,27,Block 1,0.9330397,0.1,TRUE,person,person,occlusion,control,mask,partial viewing,few large,Stimulus\all_stim\occlusion\partialviewing\fewlarge\control\fewlarge_partialViewing_control_person1.png,mask_img/000000008341.png,experiment,i,i,555.8390664
2,23,Female,Right,28,Block 1,0.8997632,0.025,TRUE,tree,tree,occlusion,high,mask,partial viewing,few large,Stimulus\all_stim\occlusion\partialviewing\fewlarge\high\fewlarge_partialViewing_high_tree6.png,mask_img/000000022142.png,experiment,u,u,557.4713954
2,23,Female,Right,29,Block 1,0.7701604,0.1,TRUE,cat,cat,occlusion,high,mask,partial viewing,few large,Stimulus\all_stim\occlusion\partialviewing\fewlarge\high\fewlarge_partialViewing_high_cat4.png,mask_img/000000017364.png,experiment,o,o,559.3596708
2,23,Female,Right,30,Block 1,1.437116,0.05,FALSE,cat,bird,occlusion,low,mask,partial viewing,many small,Stimulus\all_stim\occlusion\partialviewing\manysmall\low\manysmall_partialViewing_low_cat8.png,mask_img/000000060245.png,experiment,q,o,561.7831534
2,23,Female,Right,31,Block 1,1.2541552,0.05,TRUE,banana,banana,occlusion,low,mask,partial viewing,many small,Stimulus\all_stim\occlusion\partialviewing\manysmall\low\manysmall_partialViewing_low_banana6.png,mask_img/000000055460.png,experiment,w,w,564.1912274
2,23,Female,Right,32,Block 1,1.0771697,0.1,TRUE,cat,cat,occlusion,control,mask,partial viewing,few large,Stimulus\all_stim\occlusion\partialviewing\fewlarge\control\fewlarge_partialViewing_control_cat7.png,mask_img/000000007325.png,experiment,o,o,566.0711427
2,23,Female,Right,33,Block 1,1.6197567,0.05,TRUE,bus,bus,occlusion,high,mask,partial viewing,few large,Stimulus\all_stim\occlusion\partialviewing\fewlarge\high\fewlarge_partialViewing_high_bus3.png,mask_img/000000015908.png,experiment,e,e,568.6952398
2,23,Female,Right,34,Block 1,0.9608175,0.025,TRUE,bus,bus,occlusion,control,mask,partial viewing,many small,Stimulus\all_stim\occlusion\partialviewing\manysmall\control\manysmall_partialViewing_control_bus10.png,mask_img/000000036482.png,experiment,e,e,570.791176
2,23,Female,Right,35,Block 1,0.803512,0.1,TRUE,firehydrant,firehydrant,occlusion,high,mask,partial viewing,few large,Stimulus\all_stim\occlusion\partialviewing\fewlarge\high\fewlarge_partialViewing_high_firehydrant6.png,mask_img/000000019134.png,experiment,r,r,572.6791851
2,23,Female,Right,36,Block 1,0.8047229,0.025,TRUE,tree,tree,occlusion,low,mask,partial viewing,many small,Stimulus\all_stim\occlusion\partialviewing\manysmall\low\manysmall_partialViewing_low_tree6.png,mask_img/000000063715.png,experiment,u,u,574.4790531
2,23,Female,Right,37,Block 1,1.0516814,0.05,FALSE,bus,building,occlusion,high,mask,partial viewing,few large,Stimulus\all_stim\occlusion\partialviewing\fewlarge\high\fewlarge_partialViewing_high_bus7.png,mask_img/000000016238.png,experiment,p,e,576.4871911
2,23,Female,Right,38,Block 1,0.8849132,0.1,TRUE,building,building,occlusion,low,mask,partial viewing,many small,Stimulus\all_stim\occlusion\partialviewing\manysmall\low\manysmall_partialViewing_low_building2.png,mask_img/000000057551.png,experiment,p,p,578.2311385
2,23,Female,Right,39,Block 1,0.9901885,0.1,TRUE,person,person,occlusion,high,mask,partial viewing,few large,Stimulus\all_stim\occlusion\partialviewing\fewlarge\high\fewlarge_partialViewing_high_person8.png,mask_img/000000020570.png,experiment,i,i,580.2551579
2,23,Female,Right,40,Block 1,0.7798131,0.025,TRUE,building,building,occlusion,control,mask,partial viewing,few large,Stimulus\all_stim\occlusion\partialviewing\fewlarge\control\fewlarge_partialViewing_control_building10.png,mask_img/000000003225.png,experiment,p,p,581.9270521
2,23,Female,Right,41,Block 1,0.8759006,0.05,FALSE,person,cat,occlusion,low,mask,partial viewing,many small,Stimulus\all_stim\occlusion\partialviewing\manysmall\low\manysmall_partialViewing_low_person7.png,mask_img/000000062350.png,experiment,o,i,583.9752159
2,23,Female,Right,42,Block 1,0.814272,0.05,TRUE,tree,tree,occlusion,low,mask,partial viewing,many small,Stimulus\all_stim\occlusion\partialviewing\manysmall\low\manysmall_partialViewing_low_tree8.png,mask_img/000000063804.png,experiment,u,u,585.6392563
2,23,Female,Right,43,Block 1,0.817274,0.05,TRUE,tree,tree,occlusion,high,mask,partial viewing,few large,Stimulus\all_stim\occlusion\partialviewing\fewlarge\high\fewlarge_partialViewing_high_tree5.png,mask_img/000000022102.png,experiment,u,u,587.6392123
2,23,Female,Right,44,Block 1,0.837394,0.05,TRUE,building,building,occlusion,high,mask,partial viewing,few large,Stimulus\all_stim\occlusion\partialviewing\fewlarge\high\fewlarge_partialViewing_high_building3.png,mask_img/000000014567.png,experiment,p,p,589.3992014
2,23,Female,Right,45,Block 1,0.6072412,0.05,TRUE,firehydrant,firehydrant,occlusion,control,mask,partial viewing,few large,Stimulus\all_stim\occlusion\partialviewing\fewlarge\control\fewlarge_partialViewing_control_firehydrant8.png,mask_img/000000008193.png,experiment,r,r,591.0688566
2,23,Female,Right,46,Block 1,1.5677059,0.025,FALSE,bus,firehydrant,occlusion,high,mask,partial viewing,many small,Stimulus\all_stim\occlusion\partialviewing\manysmall\high\manysmall_partialViewing_high_bus9.png,mask_img/000000048268.png,experiment,r,e,593.7512215
2,23,Female,Right,47,Block 1,1.1412782,0.05,TRUE,firehydrant,firehydrant,occlusion,low,mask,partial viewing,many small,Stimulus\all_stim\occlusion\partialviewing\manysmall\low\manysmall_partialViewing_low_firehydrant1.png,mask_img/000000060464.png,experiment,r,r,595.7835969
2,23,Female,Right,48,Block 1,1.0101643,0.1,TRUE,building,building,occlusion,low,mask,partial viewing,few large,Stimulus\all_stim\occlusion\partialviewing\fewlarge\low\fewlarge_partialViewing_low_building5.png,mask_img/000000025034.png,experiment,p,p,597.8392866
2,23,Female,Right,49,Block 1,0.8700545,0.025,TRUE,tree,tree,occlusion,control,mask,partial viewing,many small,Stimulus\all_stim\occlusion\partialviewing\manysmall\control\manysmall_partialViewing_control_tree3.png,mask_img/000000041014.png,experiment,u,u,599.9192268
2,23,Female,Right,50,Block 1,1.2542885,0.1,TRUE,person,person,occlusion,high,mask,partial viewing,many small,Stimulus\all_stim\occlusion\partialviewing\manysmall\high\manysmall_partialViewing_high_person1.png,mask_img/000000051310.png,experiment,i,i,602.3192888
2,23,Female,Right,51,Block 1,0.8937213,0.05,TRUE,person,person,occlusion,control,mask,partial viewing,few large,Stimulus\all_stim\occlusion\partialviewing\fewlarge\control\fewlarge_partialViewing_control_person8.png,mask_img/000000009729.png,experiment,i,i,604.0390837
2,23,Female,Right,52,Block 1,1.3408698,0.1,TRUE,person,person,occlusion,high,mask,partial viewing,many small,Stimulus\all_stim\occlusion\partialviewing\manysmall\high\manysmall_partialViewing_high_person8.png,mask_img/000000052606.png,experiment,i,i,606.439336
2,23,Female,Right,53,Block 1,1.4965251,0.1,TRUE,bus,bus,occlusion,high,mask,partial viewing,few large,Stimulus\all_stim\occlusion\partialviewing\fewlarge\high\fewlarge_partialViewing_high_bus2.png,mask_img/000000015862.png,experiment,e,e,609.0952037
2,23,Female,Right,54,Block 1,0.6243948,0.1,TRUE,bus,bus,occlusion,control,mask,partial viewing,few large,Stimulus\all_stim\occlusion\partialviewing\fewlarge\control\fewlarge_partialViewing_control_bus7.png,mask_img/000000006146.png,experiment,e,e,610.5167864
2,23,Female,Right,55,Block 1,0.8431843,0.05,TRUE,bird,bird,occlusion,low,mask,partial viewing,few large,Stimulus\all_stim\occlusion\partialviewing\fewlarge\low\fewlarge_partialViewing_low_bird2.png,mask_img/000000024125.png,experiment,q,q,612.1832589
2,23,Female,Right,56,Block 1,0.7483452,0.1,TRUE,tree,tree,occlusion,high,mask,partial viewing,few large,Stimulus\all_stim\occlusion\partialviewing\fewlarge\high\fewlarge_partialViewing_high_tree4.png,mask_img/000000021981.png,experiment,u,u,614.0350785
2,23,Female,Right,57,Block 1,0.7937253,0.1,TRUE,firehydrant,firehydrant,occlusion,control,mask,partial viewing,few large,Stimulus\all_stim\occlusion\partialviewing\fewlarge\control\fewlarge_partialViewing_control_firehydrant7.png,mask_img/000000008053.png,experiment,r,r,615.5192102
2,23,Female,Right,58,Block 1,0.758477,0.05,TRUE,building,building,occlusion,low,mask,partial viewing,few large,Stimulus\all_stim\occlusion\partialviewing\fewlarge\low\fewlarge_partialViewing_low_building5.png,mask_img/000000025034.png,experiment,p,p,617.1590152
2,23,Female,Right,59,Block 1,1.0232518,0.1,FALSE,banana,bird,occlusion,control,mask,partial viewing,many small,Stimulus\all_stim\occlusion\partialviewing\manysmall\control\manysmall_partialViewing_control_banana1.png,mask_img/000000033073.png,experiment,q,w,619.2071626
2,23,Female,Right,60,Block 1,0.8543014,0.1,TRUE,tree,tree,occlusion,low,mask,partial viewing,many small,Stimulus\all_stim\occlusion\partialviewing\manysmall\low\manysmall_partialViewing_low_tree5.png,mask_img/000000063482.png,experiment,u,u,620.9194519
2,23,Female,Right,61,Block 1,1.5761419,0.05,FALSE,banana,firehydrant,occlusion,high,mask,partial viewing,many small,Stimulus\all_stim\occlusion\partialviewing\manysmall\high\manysmall_partialViewing_high_banana3.png,mask_img/000000042476.png,experiment,r,w,623.7194115
2,23,Female,Right,62,Block 1,0.8506775,0.025,TRUE,firehydrant,firehydrant,occlusion,control,mask,partial viewing,few large,Stimulus\all_stim\occlusion\partialviewing\fewlarge\control\fewlarge_partialViewing_control_firehydrant10.png,mask_img/000000007758.png,experiment,r,r,625.3752388
2,23,Female,Right,63,Block 1,0.7299431,0.1,TRUE,firehydrant,firehydrant,occlusion,control,mask,partial viewing,many small,Stimulus\all_stim\occlusion\partialviewing\manysmall\control\manysmall_partialViewing_control_firehydrant3.png,mask_img/000000039113.png,experiment,r,r,627.1438687
2,23,Female,Right,64,Block 1,1.3755465,0.05,FALSE,banana,bird,occlusion,low,mask,partial viewing,many small,Stimulus\all_stim\occlusion\partialviewing\manysmall\low\manysmall_partialViewing_low_banana9.png,mask_img/000000055652.png,experiment,q,w,629.4871622
2,23,Female,Right,65,Block 1,0.9681237,0.05,FALSE,bird,person,occlusion,high,mask,partial viewing,many small,Stimulus\all_stim\occlusion\partialviewing\manysmall\high\manysmall_partialViewing_high_bird4.png,mask_img/000000044136.png,experiment,i,q,631.4311503
2,23,Female,Right,66,Block 1,1.2421805,0.05,TRUE,banana,banana,occlusion,high,mask,partial viewing,few large,Stimulus\all_stim\occlusion\partialviewing\fewlarge\high\fewlarge_partialViewing_high_banana5.png,mask_img/000000012543.png,experiment,w,w,633.6312328
2,23,Female,Right,67,Block 1,0.9716984,0.1,TRUE,banana,banana,occlusion,low,mask,partial viewing,many small,Stimulus\all_stim\occlusion\partialviewing\manysmall\low\manysmall_partialViewing_low_banana2.png,mask_img/000000054759.png,experiment,w,w,635.6232977
2,23,Female,Right,68,Block 1,0.8470313,0.05,TRUE,tree,tree,occlusion,low,mask,partial viewing,few large,Stimulus\all_stim\occlusion\partialviewing\fewlarge\low\fewlarge_partialViewing_low_tree10.png,mask_img/000000031454.png,experiment,u,u,637.6390673
2,23,Female,Right,69,Block 1,1.1779153,0.05,TRUE,bus,bus,occlusion,high,mask,partial viewing,many small,Stimulus\all_stim\occlusion\partialviewing\manysmall\high\manysmall_partialViewing_high_bus5.png,mask_img/000000047395.png,experiment,e,e,639.7352149
2,23,Female,Right,70,Block 1,1.2351981,0.05,TRUE,banana,banana,occlusion,high,mask,partial viewing,many small,Stimulus\all_stim\occlusion\partialviewing\manysmall\high\manysmall_partialViewing_high_banana7.png,mask_img/000000043024.png,experiment,w,w,642.0153406
2,23,Female,Right,71,Block 1,1.0121147,0.1,TRUE,firehydrant,firehydrant,occlusion,high,mask,partial viewing,few large,Stimulus\all_stim\occlusion\partialviewing\fewlarge\high\fewlarge_partialViewing_high_firehydrant5.png,mask_img/000000018982.png,experiment,r,r,643.9911993
2,23,Female,Right,72,Block 1,0.848737,0.025,TRUE,bird,bird,occlusion,control,mask,partial viewing,many small,Stimulus\all_stim\occlusion\partialviewing\manysmall\control\manysmall_partialViewing_control_bird8.png,mask_img/000000035190.png,experiment,q,q,646.023238
2,23,Female,Right,73,Block 1,0.9196826,0.1,TRUE,building,building,occlusion,control,mask,partial viewing,few large,Stimulus\all_stim\occlusion\partialviewing\fewlarge\control\fewlarge_partialViewing_control_building2.png,mask_img/000000003483.png,experiment,p,p,647.8072358
2,23,Female,Right,74,Block 1,0.6746918,0.1,TRUE,tree,tree,occlusion,low,mask,partial viewing,few large,Stimulus\all_stim\occlusion\partialviewing\fewlarge\low\fewlarge_partialViewing_low_tree3.png,mask_img/000000031717.png,experiment,u,u,649.235657
2,23,Female,Right,75,Block 1,1.7928735,0.1,TRUE,bus,bus,occlusion,control,mask,partial viewing,many small,Stimulus\all_stim\occlusion\partialviewing\manysmall\control\manysmall_partialViewing_control_bus7.png,mask_img/000000037339.png,experiment,e,e,651.7750864
2,23,Female,Right,76,Block 1,0.9161313,0.1,TRUE,firehydrant,firehydrant,occlusion,high,mask,partial viewing,many small,Stimulus\all_stim\occlusion\partialviewing\manysmall\high\manysmall_partialViewing_high_firehydrant9.png,mask_img/000000051164.png,experiment,r,r,653.455187
2,23,Female,Right,77,Block 1,0.7099290999,0.05,TRUE,tree,tree,occlusion,low,mask,partial viewing,many small,Stimulus\all_stim\occlusion\partialviewing\manysmall\low\manysmall_partialViewing_low_tree6.png,mask_img/000000063715.png,experiment,u,u,655.0310487
2,23,Female,Right,78,Block 1,1.2383786,0.1,TRUE,bird,bird,occlusion,low,mask,partial viewing,few large,Stimulus\all_stim\occlusion\partialviewing\fewlarge\low\fewlarge_partialViewing_low_bird5.png,mask_img/000000024239.png,experiment,q,q,656.9672006
2,23,Female,Right,79,Block 1,0.9542291,0.1,TRUE,firehydrant,firehydrant,occlusion,high,mask,partial viewing,many small,Stimulus\all_stim\occlusion\partialviewing\manysmall\high\manysmall_partialViewing_high_firehydrant7.png,mask_img/000000050790.png,experiment,r,r,658.9271558
2,23,Female,Right,80,Block 1,1.5143846,0.1,TRUE,bus,bus,occlusion,control,mask,partial viewing,few large,Stimulus\all_stim\occlusion\partialviewing\fewlarge\control\fewlarge_partialViewing_control_bus3.png,mask_img/000000005418.png,experiment,e,e,661.5350447
2,23,Female,Right,81,Block 1,0.9303959,0.025,TRUE,person,person,occlusion,control,mask,partial viewing,few large,Stimulus\all_stim\occlusion\partialviewing\fewlarge\control\fewlarge_partialViewing_control_person1.png,mask_img/000000008341.png,experiment,i,i,663.6152148
2,23,Female,Right,82,Block 1,0.9793421,0.1,TRUE,cat,cat,occlusion,control,mask,partial viewing,few large,Stimulus\all_stim\occlusion\partialviewing\fewlarge\control\fewlarge_partialViewing_control_cat8.png,mask_img/000000007393.png,experiment,o,o,665.3271238
2,23,Female,Right,83,Block 1,0.8433042,0.05,TRUE,tree,tree,occlusion,high,mask,partial viewing,many small,Stimulus\all_stim\occlusion\partialviewing\manysmall\high\manysmall_partialViewing_high_tree10.png,mask_img/000000052818.png,experiment,u,u,667.1670765
2,23,Female,Right,84,Block 1,0.7935405,0.025,TRUE,tree,tree,occlusion,control,mask,partial viewing,many small,Stimulus\all_stim\occlusion\partialviewing\manysmall\control\manysmall_partialViewing_control_tree10.png,mask_img/000000040948.png,experiment,u,u,669.0392487
2,23,Female,Right,85,Block 1,0.756935,0.05,TRUE,building,building,occlusion,control,mask,partial viewing,many small,Stimulus\all_stim\occlusion\partialviewing\manysmall\control\manysmall_partialViewing_control_building10.png,mask_img/000000035857.png,experiment,p,p,670.6392076
2,23,Female,Right,86,Block 1,0.8571976,0.025,TRUE,cat,cat,occlusion,low,mask,partial viewing,few large,Stimulus\all_stim\occlusion\partialviewing\fewlarge\low\fewlarge_partialViewing_low_cat6.png,mask_img/000000027764.png,experiment,o,o,672.5431907
2,23,Female,Right,87,Block 1,1.0981363,0.1,TRUE,bus,bus,occlusion,control,mask,partial viewing,many small,Stimulus\all_stim\occlusion\partialviewing\manysmall\control\manysmall_partialViewing_control_bus5.png,mask_img/000000037140.png,experiment,e,e,674.4711247
2,23,Female,Right,88,Block 1,0.9319702,0.1,TRUE,firehydrant,firehydrant,occlusion,low,mask,partial viewing,few large,Stimulus\all_stim\occlusion\partialviewing\fewlarge\low\fewlarge_partialViewing_low_firehydrant4.png,mask_img/000000028671.png,experiment,r,r,676.3114642
2,23,Female,Right,89,Block 1,0.9097763,0.05,TRUE,banana,banana,occlusion,control,mask,partial viewing,few large,Stimulus\all_stim\occlusion\partialviewing\fewlarge\control\fewlarge_partialViewing_control_banana5.png,mask_img/000000000459.png,experiment,w,w,678.2632229
2,23,Female,Right,90,Block 1,1.0614956,0.025,TRUE,banana,banana,occlusion,high,mask,partial viewing,many small,Stimulus\all_stim\occlusion\partialviewing\manysmall\high\manysmall_partialViewing_high_banana6.png,mask_img/000000042704.png,experiment,w,w,680.5277346
2,23,Female,Right,91,Block 1,0.8618783,0.025,FALSE,bird,tree,occlusion,high,mask,partial viewing,many small,Stimulus\all_stim\occlusion\partialviewing\manysmall\high\manysmall_partialViewing_high_bird7.png,mask_img/000000044580.png,experiment,u,q,682.2151092
2,23,Female,Right,92,Block 1,1.2296657,0.025,TRUE,bus,bus,occlusion,low,mask,partial viewing,few large,Stimulus\all_stim\occlusion\partialviewing\fewlarge\low\fewlarge_partialViewing_low_bus2.png,mask_img/000000025858.png,experiment,e,e,684.2312024
2,23,Female,Right,93,Block 1,0.9261801,0.1,TRUE,firehydrant,firehydrant,occlusion,high,mask,partial viewing,many small,Stimulus\all_stim\occlusion\partialviewing\manysmall\high\manysmall_partialViewing_high_firehydrant4.png,mask_img/000000050412.png,experiment,r,r,686.1833327
2,23,Female,Right,94,Block 1,0.8551214,0.025,TRUE,building,building,occlusion,high,mask,partial viewing,many small,Stimulus\all_stim\occlusion\partialviewing\manysmall\high\manysmall_partialViewing_high_building7.png,mask_img/000000046171.png,experiment,p,p,687.871105
2,23,Female,Right,95,Block 1,0.9764976,0.05,TRUE,banana,banana,occlusion,low,mask,partial viewing,many small,Stimulus\all_stim\occlusion\partialviewing\manysmall\low\manysmall_partialViewing_low_banana1.png,mask_img/000000054532.png,experiment,w,w,689.743162
2,23,Female,Right,96,Block 1,0.9313953,0.1,TRUE,building,building,occlusion,low,mask,partial viewing,few large,Stimulus\all_stim\occlusion\partialviewing\fewlarge\low\fewlarge_partialViewing_low_building7.png,mask_img/000000025192.png,experiment,p,p,691.7513194
2,23,Female,Right,97,Block 1,1.6572439,0.025,FALSE,firehydrant,cat,occlusion,high,mask,partial viewing,many small,Stimulus\all_stim\occlusion\partialviewing\manysmall\high\manysmall_partialViewing_high_firehydrant2.png,mask_img/000000050239.png,experiment,o,r,694.3992323
2,23,Female,Right,98,Block 1,0.9989207,0.025,TRUE,person,person,occlusion,high,mask,partial viewing,many small,Stimulus\all_stim\occlusion\partialviewing\manysmall\high\manysmall_partialViewing_high_person2.png,mask_img/000000051461.png,experiment,i,i,696.287275
2,23,Female,Right,99,Block 1,0.8030222,0.025,TRUE,person,person,occlusion,control,mask,partial viewing,many small,Stimulus\all_stim\occlusion\partialviewing\manysmall\control\manysmall_partialViewing_control_person7.png,mask_img/000000040399.png,experiment,i,i,698.1271731
2,23,Female,Right,100,Block 1,0.9162361,0.1,TRUE,tree,tree,occlusion,high,mask,partial viewing,many small,Stimulus\all_stim\occlusion\partialviewing\manysmall\high\manysmall_partialViewing_high_tree3.png,mask_img/000000052936.png,experiment,u,u,699.9111652
2,23,Female,Right,101,Block 1,0.8413192,0.05,TRUE,cat,cat,occlusion,control,mask,partial viewing,many small,Stimulus\all_stim\occlusion\partialviewing\manysmall\control\manysmall_partialViewing_control_cat2.png,mask_img/000000038375.png,experiment,o,o,701.7031087
2,23,Female,Right,102,Block 1,0.9277485,0.1,TRUE,banana,banana,occlusion,control,mask,partial viewing,few large,Stimulus\all_stim\occlusion\partialviewing\fewlarge\control\fewlarge_partialViewing_control_banana1.png,mask_img/000000000042.png,experiment,w,w,703.5672509
2,23,Female,Right,103,Block 1,0.8142688,0.025,TRUE,tree,tree,occlusion,control,mask,partial viewing,few large,Stimulus\all_stim\occlusion\partialviewing\fewlarge\control\fewlarge_partialViewing_control_tree6.png,mask_img/000000011328.png,experiment,u,u,705.1272872
2,23,Female,Right,104,Block 1,0.9352165,0.025,TRUE,bus,bus,occlusion,high,mask,partial viewing,few large,Stimulus\all_stim\occlusion\partialviewing\fewlarge\high\fewlarge_partialViewing_high_bus5.png,mask_img/000000015986.png,experiment,e,e,706.8630111
2,23,Female,Right,105,Block 1,0.8257512,0.1,TRUE,bus,bus,occlusion,low,mask,partial viewing,many small,Stimulus\all_stim\occlusion\partialviewing\manysmall\low\manysmall_partialViewing_low_bus8.png,mask_img/000000058873.png,experiment,e,e,708.7191853
2,23,Female,Right,106,Block 1,1.7880308,0.05,TRUE,bird,bird,occlusion,high,mask,partial viewing,few large,Stimulus\all_stim\occlusion\partialviewing\fewlarge\high\fewlarge_partialViewing_high_bird3.png,mask_img/000000013455.png,experiment,q,q,711.3912181
2,23,Female,Right,107,Block 1,0.8935098,0.05,TRUE,banana,banana,occlusion,high,mask,partial viewing,few large,Stimulus\all_stim\occlusion\partialviewing\fewlarge\high\fewlarge_partialViewing_high_banana7.png,mask_img/000000012567.png,experiment,w,w,712.9672979
2,23,Female,Right,108,Block 1,0.9336992,0.1,TRUE,person,person,occlusion,control,mask,partial viewing,many small,Stimulus\all_stim\occlusion\partialviewing\manysmall\control\manysmall_partialViewing_control_person1.png,mask_img/000000039656.png,experiment,i,i,714.8872767
2,23,Female,Right,109,Block 1,1.4237781,0.05,TRUE,bus,bus,occlusion,control,mask,partial viewing,many small,Stimulus\all_stim\occlusion\partialviewing\manysmall\control\manysmall_partialViewing_control_bus9.png,mask_img/000000037864.png,experiment,e,e,717.1032477
2,23,Female,Right,110,Block 1,1.063761,0.1,TRUE,tree,tree,occlusion,control,mask,partial viewing,few large,Stimulus\all_stim\occlusion\partialviewing\fewlarge\control\fewlarge_partialViewing_control_tree6.png,mask_img/000000011328.png,experiment,u,u,719.2551637
2,23,Female,Right,111,Block 1,0.8790022,0.1,TRUE,banana,banana,occlusion,control,mask,partial viewing,few large,Stimulus\all_stim\occlusion\partialviewing\fewlarge\control\fewlarge_partialViewing_control_banana5.png,mask_img/000000000459.png,experiment,w,w,721.0073314
2,23,Female,Right,112,Block 1,0.9535783,0.05,TRUE,bus,bus,occlusion,low,mask,partial viewing,few large,Stimulus\all_stim\occlusion\partialviewing\fewlarge\low\fewlarge_partialViewing_low_bus6.png,mask_img/000000026503.png,experiment,e,e,723.1352117
2,23,Female,Right,113,Block 1,0.7493443,0.05,TRUE,building,building,occlusion,low,mask,partial viewing,many small,Stimulus\all_stim\occlusion\partialviewing\manysmall\low\manysmall_partialViewing_low_building3.png,mask_img/000000057646.png,experiment,p,p,724.7352539
2,23,Female,Right,114,Block 1,0.9081638,0.1,TRUE,bird,bird,occlusion,high,mask,partial viewing,many small,Stimulus\all_stim\occlusion\partialviewing\manysmall\high\manysmall_partialViewing_high_bird8.png,mask_img/000000044831.png,experiment,q,q,726.7830158
2,23,Female,Right,115,Block 1,0.8169486,0.05,TRUE,tree,tree,occlusion,control,mask,partial viewing,many small,Stimulus\all_stim\occlusion\partialviewing\manysmall\control\manysmall_partialViewing_control_tree3.png,mask_img/000000041014.png,experiment,u,u,728.3038554
2,23,Female,Right,116,Block 1,0.5929464,0.05,TRUE,tree,tree,occlusion,low,mask,partial viewing,many small,Stimulus\all_stim\occlusion\partialviewing\manysmall\low\manysmall_partialViewing_low_tree9.png,mask_img/000000063867.png,experiment,u,u,729.7166182
2,23,Female,Right,117,Block 1,0.5948757,0.1,TRUE,firehydrant,firehydrant,occlusion,control,mask,partial viewing,many small,Stimulus\all_stim\occlusion\partialviewing\manysmall\control\manysmall_partialViewing_control_firehydrant5.png,mask_img/000000039211.png,experiment,r,r,731.2094082
2,23,Female,Right,118,Block 1,0.8591031,0.1,TRUE,bus,bus,occlusion,control,mask,partial viewing,few large,Stimulus\all_stim\occlusion\partialviewing\fewlarge\control\fewlarge_partialViewing_control_bus1.png,mask_img/000000005142.png,experiment,e,e,732.8553516
2,23,Female,Right,119,Block 1,0.7605051,0.1,TRUE,person,person,occlusion,high,mask,partial viewing,few large,Stimulus\all_stim\occlusion\partialviewing\fewlarge\high\fewlarge_partialViewing_high_person9.png,mask_img/000000021003.png,experiment,i,i,734.6951258
2,23,Female,Right,120,Block 1,1.2612089,0.025,TRUE,building,building,occlusion,control,mask,partial viewing,few large,Stimulus\all_stim\occlusion\partialviewing\fewlarge\control\fewlarge_partialViewing_control_building9.png,mask_img/000000005131.png,experiment,p,p,736.7191811
2,23,Female,Right,121,Block 1,0.901714,0.05,TRUE,bus,bus,occlusion,high,mask,partial viewing,few large,Stimulus\all_stim\occlusion\partialviewing\fewlarge\high\fewlarge_partialViewing_high_bus2.png,mask_img/000000015862.png,experiment,e,e,738.6552123
2,23,Female,Right,122,Block 1,0.7353372,0.1,TRUE,cat,cat,occlusion,high,mask,partial viewing,few large,Stimulus\all_stim\occlusion\partialviewing\fewlarge\high\fewlarge_partialViewing_high_cat9.png,mask_img/000000017858.png,experiment,o,o,740.199138
2,23,Female,Right,123,Block 1,0.8782301,0.1,TRUE,cat,cat,occlusion,low,mask,partial viewing,many small,Stimulus\all_stim\occlusion\partialviewing\manysmall\low\manysmall_partialViewing_low_cat1.png,mask_img/000000059036.png,experiment,o,o,742.2230836
2,23,Female,Right,124,Block 1,0.6159082,0.05,TRUE,tree,tree,occlusion,low,mask,partial viewing,few large,Stimulus\all_stim\occlusion\partialviewing\fewlarge\low\fewlarge_partialViewing_low_tree8.png,mask_img/000000032918.png,experiment,u,u,743.7479824
2,23,Female,Right,125,Block 1,0.7256024,0.1,TRUE,bird,bird,occlusion,high,mask,partial viewing,few large,Stimulus\all_stim\occlusion\partialviewing\fewlarge\high\fewlarge_partialViewing_high_bird5.png,mask_img/000000013914.png,experiment,q,q,745.5672356
2,23,Female,Right,126,Block 1,0.8835619,0.025,TRUE,bird,bird,occlusion,control,mask,partial viewing,few large,Stimulus\all_stim\occlusion\partialviewing\fewlarge\control\fewlarge_partialViewing_control_bird4.png,mask_img/000000001997.png,experiment,q,q,747.3671649
2,23,Female,Right,127,Block 1,0.9533244,0.1,TRUE,banana,banana,occlusion,low,mask,partial viewing,few large,Stimulus\all_stim\occlusion\partialviewing\fewlarge\low\fewlarge_partialViewing_low_banana4.png,mask_img/000000023015.png,experiment,w,w,749.0312092
2,23,Female,Right,128,Block 1,1.2590593,0.025,TRUE,cat,cat,occlusion,low,mask,partial viewing,few large,Stimulus\all_stim\occlusion\partialviewing\fewlarge\low\fewlarge_partialViewing_low_cat5.png,mask_img/000000027704.png,experiment,o,o,750.967338
2,23,Female,Right,129,Block 1,0.6795205,0.05,TRUE,tree,tree,occlusion,high,mask,partial viewing,few large,Stimulus\all_stim\occlusion\partialviewing\fewlarge\high\fewlarge_partialViewing_high_tree3.png,mask_img/000000021942.png,experiment,u,u,752.7868789
2,23,Female,Right,130,Block 1,0.8816632,0.1,TRUE,banana,banana,occlusion,high,mask,partial viewing,many small,Stimulus\all_stim\occlusion\partialviewing\manysmall\high\manysmall_partialViewing_high_banana4.png,mask_img/000000042499.png,experiment,w,w,754.6472562
2,23,Female,Right,131,Block 1,2.3300042,0.025,TRUE,tree,tree,occlusion,low,mask,partial viewing,few large,Stimulus\all_stim\occlusion\partialviewing\fewlarge\low\fewlarge_partialViewing_low_tree9.png,mask_img/000000032965.png,experiment,u,u,758.1513636
2,23,Female,Right,132,Block 1,1.0133503,0.05,TRUE,cat,cat,occlusion,control,mask,partial viewing,few large,Stimulus\all_stim\occlusion\partialviewing\fewlarge\control\fewlarge_partialViewing_control_cat5.png,mask_img/000000006870.png,experiment,o,o,760.0391293
2,23,Female,Right,133,Block 1,0.8397236,0.05,TRUE,tree,tree,occlusion,control,mask,partial viewing,few large,Stimulus\all_stim\occlusion\partialviewing\fewlarge\control\fewlarge_partialViewing_control_tree2.png,mask_img/000000010560.png,experiment,u,u,761.8392821
2,23,Female,Right,134,Block 1,0.7408186,0.1,TRUE,person,person,occlusion,control,mask,partial viewing,few large,Stimulus\all_stim\occlusion\partialviewing\fewlarge\control\fewlarge_partialViewing_control_person7.png,mask_img/000000009648.png,experiment,i,i,763.5087128
2,23,Female,Right,135,Block 1,0.7650087,0.1,TRUE,firehydrant,firehydrant,occlusion,control,mask,partial viewing,many small,Stimulus\all_stim\occlusion\partialviewing\manysmall\control\manysmall_partialViewing_control_firehydrant9.png,mask_img/000000039643.png,experiment,r,r,765.2075822
2,23,Female,Right,136,Block 1,1.2439567,0.05,TRUE,bird,bird,occlusion,high,mask,partial viewing,few large,Stimulus\all_stim\occlusion\partialviewing\fewlarge\high\fewlarge_partialViewing_high_bird1.png,mask_img/000000013061.png,experiment,q,q,767.5032098
2,23,Female,Right,137,Block 1,0.9134871,0.05,TRUE,bird,bird,occlusion,high,mask,partial viewing,many small,Stimulus\all_stim\occlusion\partialviewing\manysmall\high\manysmall_partialViewing_high_bird1.png,mask_img/000000043966.png,experiment,q,q,769.3833723
2,23,Female,Right,138,Block 1,0.8609081,0.025,TRUE,building,building,occlusion,control,mask,partial viewing,many small,Stimulus\all_stim\occlusion\partialviewing\manysmall\control\manysmall_partialViewing_control_building3.png,mask_img/000000035979.png,experiment,p,p,771.3991644
2,23,Female,Right,139,Block 1,0.8077177,0.05,TRUE,firehydrant,firehydrant,occlusion,control,mask,partial viewing,many small,Stimulus\all_stim\occlusion\partialviewing\manysmall\control\manysmall_partialViewing_control_firehydrant5.png,mask_img/000000039211.png,experiment,r,r,773.375434
2,23,Female,Right,140,Block 1,0.8844274,0.1,TRUE,person,person,occlusion,low,mask,partial viewing,many small,Stimulus\all_stim\occlusion\partialviewing\manysmall\low\manysmall_partialViewing_low_person9.png,mask_img/000000062427.png,experiment,i,i,775.4233148
2,23,Female,Right,141,Block 1,0.8131715,0.1,TRUE,tree,tree,occlusion,high,mask,partial viewing,many small,Stimulus\all_stim\occlusion\partialviewing\manysmall\high\manysmall_partialViewing_high_tree9.png,mask_img/000000054336.png,experiment,u,u,777.0633743
2,23,Female,Right,142,Block 1,0.8213366,0.05,TRUE,building,building,occlusion,control,mask,partial viewing,few large,Stimulus\all_stim\occlusion\partialviewing\fewlarge\control\fewlarge_partialViewing_control_building8.png,mask_img/000000005105.png,experiment,p,p,778.8551688
2,23,Female,Right,143,Block 1,0.8110137,0.05,TRUE,person,person,occlusion,low,mask,partial viewing,few large,Stimulus\all_stim\occlusion\partialviewing\fewlarge\low\fewlarge_partialViewing_low_person3.png,mask_img/000000029506.png,experiment,i,i,780.7673628
2,23,Female,Right,144,Block 1,1.0630242,0.1,TRUE,person,person,occlusion,control,mask,partial viewing,few large,Stimulus\all_stim\occlusion\partialviewing\fewlarge\control\fewlarge_partialViewing_control_person3.png,mask_img/000000008920.png,experiment,i,i,1164.047553
2,23,Female,Right,145,Block 2,1.0390588,0.025,TRUE,firehydrant,firehydrant,occlusion,low,mask,partial viewing,many small,Stimulus\all_stim\occlusion\partialviewing\manysmall\low\manysmall_partialViewing_low_firehydrant5.png,mask_img/000000060623.png,experiment,r,r,1166.11931
2,23,Female,Right,146,Block 2,0.8862926,0.05,TRUE,cat,cat,occlusion,low,mask,partial viewing,few large,Stimulus\all_stim\occlusion\partialviewing\fewlarge\low\fewlarge_partialViewing_low_cat8.png,mask_img/000000028171.png,experiment,o,o,1167.847267
2,23,Female,Right,147,Block 2,0.9581909,0.1,TRUE,tree,tree,occlusion,control,mask,partial viewing,few large,Stimulus\all_stim\occlusion\partialviewing\fewlarge\control\fewlarge_partialViewing_control_tree5.png,mask_img/000000010991.png,experiment,u,u,1170.023273
2,23,Female,Right,148,Block 2,0.8904107,0.1,TRUE,tree,tree,occlusion,control,mask,partial viewing,many small,Stimulus\all_stim\occlusion\partialviewing\manysmall\control\manysmall_partialViewing_control_tree2.png,mask_img/000000041008.png,experiment,u,u,1172.039236
2,23,Female,Right,149,Block 2,1.1080057,0.1,FALSE,bird,banana,occlusion,control,mask,partial viewing,many small,Stimulus\all_stim\occlusion\partialviewing\manysmall\control\manysmall_partialViewing_control_bird10.png,mask_img/000000034304.png,experiment,w,q,1174.1274
2,23,Female,Right,150,Block 2,0.9072626,0.1,TRUE,firehydrant,firehydrant,occlusion,high,mask,partial viewing,few large,Stimulus\all_stim\occlusion\partialviewing\fewlarge\high\fewlarge_partialViewing_high_firehydrant7.png,mask_img/000000019463.png,experiment,r,r,1175.807425
2,23,Female,Right,151,Block 2,0.8095267,0.025,TRUE,bird,bird,occlusion,control,mask,partial viewing,few large,Stimulus\all_stim\occlusion\partialviewing\fewlarge\control\fewlarge_partialViewing_control_bird7.png,mask_img/000000002774.png,experiment,q,q,1177.679115
2,23,Female,Right,152,Block 2,1.2303996,0.1,TRUE,bus,bus,occlusion,low,mask,partial viewing,many small,Stimulus\all_stim\occlusion\partialviewing\manysmall\low\manysmall_partialViewing_low_bus3.png,mask_img/000000058647.png,experiment,e,e,1179.89547
2,23,Female,Right,153,Block 2,0.8780175,0.1,TRUE,banana,banana,occlusion,control,mask,partial viewing,few large,Stimulus\all_stim\occlusion\partialviewing\fewlarge\control\fewlarge_partialViewing_control_banana3.png,mask_img/000000000394.png,experiment,w,w,1181.687245
2,23,Female,Right,154,Block 2,0.7466184,0.025,TRUE,building,building,occlusion,low,mask,partial viewing,few large,Stimulus\all_stim\occlusion\partialviewing\fewlarge\low\fewlarge_partialViewing_low_building8.png,mask_img/000000025453.png,experiment,p,p,1183.495932
2,23,Female,Right,155,Block 2,0.9385353,0.1,TRUE,person,person,occlusion,low,mask,partial viewing,few large,Stimulus\all_stim\occlusion\partialviewing\fewlarge\low\fewlarge_partialViewing_low_person9.png,mask_img/000000031017.png,experiment,i,i,1185.119341
2,23,Female,Right,156,Block 2,1.4465182,0.1,TRUE,bus,bus,occlusion,high,mask,partial viewing,many small,Stimulus\all_stim\occlusion\partialviewing\manysmall\high\manysmall_partialViewing_high_bus4.png,mask_img/000000047316.png,experiment,e,e,1187.423406
2,23,Female,Right,157,Block 2,1.0381255,0.05,TRUE,person,person,occlusion,low,mask,partial viewing,many small,Stimulus\all_stim\occlusion\partialviewing\manysmall\low\manysmall_partialViewing_low_person10.png,mask_img/000000061838.png,experiment,i,i,1189.439167
2,23,Female,Right,158,Block 2,0.7501933,0.1,TRUE,tree,tree,occlusion,control,mask,partial viewing,few large,Stimulus\all_stim\occlusion\partialviewing\fewlarge\control\fewlarge_partialViewing_control_tree2.png,mask_img/000000010560.png,experiment,u,u,1190.887351
2,23,Female,Right,159,Block 2,1.2213881,0.05,TRUE,firehydrant,firehydrant,occlusion,control,mask,partial viewing,many small,Stimulus\all_stim\occlusion\partialviewing\manysmall\control\manysmall_partialViewing_control_firehydrant2.png,mask_img/000000039089.png,experiment,r,r,1192.943485
2,23,Female,Right,160,Block 2,0.7678404,0.025,TRUE,tree,tree,occlusion,control,mask,partial viewing,many small,Stimulus\all_stim\occlusion\partialviewing\manysmall\control\manysmall_partialViewing_control_tree6.png,mask_img/000000041272.png,experiment,u,u,1194.583374
2,23,Female,Right,161,Block 2,0.7264073,0.025,TRUE,building,building,occlusion,low,mask,partial viewing,few large,Stimulus\all_stim\occlusion\partialviewing\fewlarge\low\fewlarge_partialViewing_low_building5.png,mask_img/000000025034.png,experiment,p,p,1196.367538
2,23,Female,Right,162,Block 2,0.7548353,0.05,TRUE,cat,cat,occlusion,control,mask,partial viewing,many small,Stimulus\all_stim\occlusion\partialviewing\manysmall\control\manysmall_partialViewing_control_cat9.png,mask_img/000000038862.png,experiment,o,o,1198.279347
2,23,Female,Right,163,Block 2,0.6527346,0.1,TRUE,tree,tree,occlusion,low,mask,partial viewing,many small,Stimulus\all_stim\occlusion\partialviewing\manysmall\low\manysmall_partialViewing_low_tree6.png,mask_img/000000063715.png,experiment,u,u,1199.706502
2,23,Female,Right,164,Block 2,1.8015873,0.1,TRUE,cat,cat,occlusion,low,mask,partial viewing,few large,Stimulus\all_stim\occlusion\partialviewing\fewlarge\low\fewlarge_partialViewing_low_cat3.png,mask_img/000000027556.png,experiment,o,o,1202.431208
2,23,Female,Right,165,Block 2,1.1481097,0.025,TRUE,bus,bus,occlusion,low,mask,partial viewing,few large,Stimulus\all_stim\occlusion\partialviewing\fewlarge\low\fewlarge_partialViewing_low_bus8.png,mask_img/000000026782.png,experiment,e,e,1204.655255
2,23,Female,Right,166,Block 2,0.9017429,0.05,TRUE,person,person,occlusion,low,mask,partial viewing,few large,Stimulus\all_stim\occlusion\partialviewing\fewlarge\low\fewlarge_partialViewing_low_person10.png,mask_img/000000029128.png,experiment,i,i,1206.471343
2,23,Female,Right,167,Block 2,0.8428667,0.05,TRUE,bird,bird,occlusion,control,mask,partial viewing,few large,Stimulus\all_stim\occlusion\partialviewing\fewlarge\control\fewlarge_partialViewing_control_bird8.png,mask_img/000000002822.png,experiment,q,q,1208.255591
2,23,Female,Right,168,Block 2,0.883477,0.05,TRUE,tree,tree,occlusion,control,mask,partial viewing,few large,Stimulus\all_stim\occlusion\partialviewing\fewlarge\control\fewlarge_partialViewing_control_tree9.png,mask_img/000000011701.png,experiment,u,u,1210.423437
2,23,Female,Right,169,Block 2,0.7074785,0.025,TRUE,building,building,occlusion,low,mask,partial viewing,many small,Stimulus\all_stim\occlusion\partialviewing\manysmall\low\manysmall_partialViewing_low_building8.png,mask_img/000000058073.png,experiment,p,p,1212.023289
2,23,Female,Right,170,Block 2,0.8867613,0.025,TRUE,bird,bird,occlusion,control,mask,partial viewing,many small,Stimulus\all_stim\occlusion\partialviewing\manysmall\control\manysmall_partialViewing_control_bird7.png,mask_img/000000035132.png,experiment,q,q,1214.02384
2,23,Female,Right,171,Block 2,0.8373579,0.1,TRUE,cat,cat,occlusion,low,mask,partial viewing,few large,Stimulus\all_stim\occlusion\partialviewing\fewlarge\low\fewlarge_partialViewing_low_cat10.png,mask_img/000000027319.png,experiment,o,o,1215.791183
2,23,Female,Right,172,Block 2,0.7463333,0.1,TRUE,tree,tree,occlusion,control,mask,partial viewing,many small,Stimulus\all_stim\occlusion\partialviewing\manysmall\control\manysmall_partialViewing_control_tree3.png,mask_img/000000041014.png,experiment,u,u,1217.543494
2,23,Female,Right,173,Block 2,0.8686439,0.05,TRUE,person,person,occlusion,high,mask,partial viewing,many small,Stimulus\all_stim\occlusion\partialviewing\manysmall\high\manysmall_partialViewing_high_person7.png,mask_img/000000052562.png,experiment,i,i,1219.447289
2,23,Female,Right,174,Block 2,0.8642598,0.025,TRUE,banana,banana,occlusion,control,mask,partial viewing,many small,Stimulus\all_stim\occlusion\partialviewing\manysmall\control\manysmall_partialViewing_control_banana3.png,mask_img/000000033323.png,experiment,w,w,1221.151238
2,23,Female,Right,175,Block 2,0.9005372,0.1,TRUE,cat,cat,occlusion,high,mask,partial viewing,few large,Stimulus\all_stim\occlusion\partialviewing\fewlarge\high\fewlarge_partialViewing_high_cat7.png,mask_img/000000017580.png,experiment,o,o,1222.895396
2,23,Female,Right,176,Block 2,0.8913874,0.025,TRUE,firehydrant,firehydrant,occlusion,low,mask,partial viewing,many small,Stimulus\all_stim\occlusion\partialviewing\manysmall\low\manysmall_partialViewing_low_firehydrant6.png,mask_img/000000060647.png,experiment,r,r,1224.64733
2,23,Female,Right,177,Block 2,0.7460031,0.025,TRUE,building,building,occlusion,control,mask,partial viewing,many small,Stimulus\all_stim\occlusion\partialviewing\manysmall\control\manysmall_partialViewing_control_building2.png,mask_img/000000035864.png,experiment,p,p,1226.511319
2,23,Female,Right,178,Block 2,0.8335025,0.025,TRUE,banana,banana,occlusion,high,mask,partial viewing,few large,Stimulus\all_stim\occlusion\partialviewing\fewlarge\high\fewlarge_partialViewing_high_banana10.png,mask_img/000000012178.png,experiment,w,w,1228.343231
2,23,Female,Right,179,Block 2,0.9147581,0.1,TRUE,banana,banana,occlusion,high,mask,partial viewing,many small,Stimulus\all_stim\occlusion\partialviewing\manysmall\high\manysmall_partialViewing_high_banana7.png,mask_img/000000043024.png,experiment,w,w,1229.999362
2,23,Female,Right,180,Block 2,1.1587103,0.025,TRUE,bus,bus,occlusion,high,mask,partial viewing,few large,Stimulus\all_stim\occlusion\partialviewing\fewlarge\high\fewlarge_partialViewing_high_bus9.png,mask_img/000000016764.png,experiment,e,e,1232.055251
2,23,Female,Right,181,Block 2,0.7493639,0.05,TRUE,banana,banana,occlusion,control,mask,partial viewing,many small,Stimulus\all_stim\occlusion\partialviewing\manysmall\control\manysmall_partialViewing_control_banana5.png,mask_img/000000033669.png,experiment,w,w,1233.863263
2,23,Female,Right,182,Block 2,0.6930114,0.05,TRUE,tree,tree,occlusion,control,mask,partial viewing,many small,Stimulus\all_stim\occlusion\partialviewing\manysmall\control\manysmall_partialViewing_control_tree2.png,mask_img/000000041008.png,experiment,u,u,1235.34327
2,23,Female,Right,183,Block 2,0.724052,0.025,TRUE,building,building,occlusion,control,mask,partial viewing,few large,Stimulus\all_stim\occlusion\partialviewing\fewlarge\control\fewlarge_partialViewing_control_building8.png,mask_img/000000005105.png,experiment,p,p,1237.015193
2,23,Female,Right,184,Block 2,0.8811623,0.1,TRUE,bus,bus,occlusion,high,mask,partial viewing,few large,Stimulus\all_stim\occlusion\partialviewing\fewlarge\high\fewlarge_partialViewing_high_bus5.png,mask_img/000000015986.png,experiment,e,e,1239.063251
2,23,Female,Right,185,Block 2,0.8031084,0.1,TRUE,building,building,occlusion,low,mask,partial viewing,many small,Stimulus\all_stim\occlusion\partialviewing\manysmall\low\manysmall_partialViewing_low_building7.png,mask_img/000000058021.png,experiment,p,p,1240.791132
2,23,Female,Right,186,Block 2,1.1900563,0.05,FALSE,building,bus,occlusion,low,mask,partial viewing,many small,Stimulus\all_stim\occlusion\partialviewing\manysmall\low\manysmall_partialViewing_low_building4.png,mask_img/000000057782.png,experiment,e,p,1242.927246
2,23,Female,Right,187,Block 2,1.4300222,0.025,TRUE,person,person,occlusion,high,mask,partial viewing,many small,Stimulus\all_stim\occlusion\partialviewing\manysmall\high\manysmall_partialViewing_high_person8.png,mask_img/000000052606.png,experiment,i,i,1245.111208
2,23,Female,Right,188,Block 2,1.013721,0.025,FALSE,person,cat,occlusion,high,mask,partial viewing,many small,Stimulus\all_stim\occlusion\partialviewing\manysmall\high\manysmall_partialViewing_high_person9.png,mask_img/000000052619.png,experiment,o,i,1247.007328
2,23,Female,Right,189,Block 2,0.9169836,0.1,TRUE,bird,bird,occlusion,low,mask,partial viewing,many small,Stimulus\all_stim\occlusion\partialviewing\manysmall\low\manysmall_partialViewing_low_bird1.png,mask_img/000000055694.png,experiment,q,q,1249.111205
2,23,Female,Right,190,Block 2,0.8068774,0.025,TRUE,tree,tree,occlusion,low,mask,partial viewing,many small,Stimulus\all_stim\occlusion\partialviewing\manysmall\low\manysmall_partialViewing_low_tree8.png,mask_img/000000063804.png,experiment,u,u,1250.655311
2,23,Female,Right,191,Block 2,0.7801614,0.1,TRUE,building,building,occlusion,control,mask,partial viewing,many small,Stimulus\all_stim\occlusion\partialviewing\manysmall\control\manysmall_partialViewing_control_building8.png,mask_img/000000036091.png,experiment,p,p,1252.623234
2,23,Female,Right,192,Block 2,0.8945999,0.1,TRUE,person,person,occlusion,control,mask,partial viewing,many small,Stimulus\all_stim\occlusion\partialviewing\manysmall\control\manysmall_partialViewing_control_person3.png,mask_img/000000040008.png,experiment,i,i,1254.439315
2,23,Female,Right,193,Block 2,0.9192469,0.1,TRUE,cat,cat,occlusion,low,mask,partial viewing,many small,Stimulus\all_stim\occlusion\partialviewing\manysmall\low\manysmall_partialViewing_low_cat5.png,mask_img/000000059660.png,experiment,o,o,1256.159317
2,23,Female,Right,194,Block 2,0.8399138,0.05,TRUE,firehydrant,firehydrant,occlusion,low,mask,partial viewing,few large,Stimulus\all_stim\occlusion\partialviewing\fewlarge\low\fewlarge_partialViewing_low_firehydrant10.png,mask_img/000000028367.png,experiment,r,r,1258.087386
2,23,Female,Right,195,Block 2,0.8237275,0.025,TRUE,person,person,occlusion,low,mask,partial viewing,many small,Stimulus\all_stim\occlusion\partialviewing\manysmall\low\manysmall_partialViewing_low_person7.png,mask_img/000000062350.png,experiment,i,i,1259.623217
2,23,Female,Right,196,Block 2,0.8614555,0.1,TRUE,person,person,occlusion,high,mask,partial viewing,few large,Stimulus\all_stim\occlusion\partialviewing\fewlarge\high\fewlarge_partialViewing_high_person5.png,mask_img/000000020381.png,experiment,i,i,1261.53567
2,23,Female,Right,197,Block 2,0.8311058,0.1,TRUE,tree,tree,occlusion,control,mask,partial viewing,many small,Stimulus\all_stim\occlusion\partialviewing\manysmall\control\manysmall_partialViewing_control_tree10.png,mask_img/000000040948.png,experiment,u,u,1263.359324
2,23,Female,Right,198,Block 2,0.8047881,0.1,TRUE,banana,banana,occlusion,high,mask,partial viewing,few large,Stimulus\all_stim\occlusion\partialviewing\fewlarge\high\fewlarge_partialViewing_high_banana8.png,mask_img/000000012733.png,experiment,w,w,1264.903854
2,23,Female,Right,199,Block 2,0.8365344,0.025,TRUE,tree,tree,occlusion,low,mask,partial viewing,many small,Stimulus\all_stim\occlusion\partialviewing\manysmall\low\manysmall_partialViewing_low_tree10.png,mask_img/000000062716.png,experiment,u,u,1266.527391
2,23,Female,Right,200,Block 2,0.8876082,0.05,TRUE,banana,banana,occlusion,high,mask,partial viewing,few large,Stimulus\all_stim\occlusion\partialviewing\fewlarge\high\fewlarge_partialViewing_high_banana2.png,mask_img/000000012179.png,experiment,w,w,1268.447391
2,23,Female,Right,201,Block 2,0.8403313,0.1,TRUE,firehydrant,firehydrant,occlusion,control,mask,partial viewing,few large,Stimulus\all_stim\occlusion\partialviewing\fewlarge\control\fewlarge_partialViewing_control_firehydrant10.png,mask_img/000000007758.png,experiment,r,r,1269.991451
2,23,Female,Right,202,Block 2,0.7727985,0.1,TRUE,banana,banana,occlusion,control,mask,partial viewing,few large,Stimulus\all_stim\occlusion\partialviewing\fewlarge\control\fewlarge_partialViewing_control_banana7.png,mask_img/000000000626.png,experiment,w,w,1271.896164
2,23,Female,Right,203,Block 2,0.8248023,0.1,TRUE,bird,bird,occlusion,low,mask,partial viewing,few large,Stimulus\all_stim\occlusion\partialviewing\fewlarge\low\fewlarge_partialViewing_low_bird9.png,mask_img/000000024530.png,experiment,q,q,1273.919279
2,23,Female,Right,204,Block 2,0.7563283,0.05,TRUE,person,person,occlusion,high,mask,partial viewing,few large,Stimulus\all_stim\occlusion\partialviewing\fewlarge\high\fewlarge_partialViewing_high_person8.png,mask_img/000000020570.png,experiment,i,i,1275.519207
2,23,Female,Right,205,Block 2,1.0555829,0.025,FALSE,bird,banana,occlusion,high,mask,partial viewing,few large,Stimulus\all_stim\occlusion\partialviewing\fewlarge\high\fewlarge_partialViewing_high_bird10.png,mask_img/000000013127.png,experiment,w,q,1277.687616
2,23,Female,Right,206,Block 2,0.8652299,0.1,TRUE,firehydrant,firehydrant,occlusion,control,mask,partial viewing,many small,Stimulus\all_stim\occlusion\partialviewing\manysmall\control\manysmall_partialViewing_control_firehydrant7.png,mask_img/000000039475.png,experiment,r,r,1279.567286
2,23,Female,Right,207,Block 2,0.8346945,0.05,TRUE,cat,cat,occlusion,low,mask,partial viewing,few large,Stimulus\all_stim\occlusion\partialviewing\fewlarge\low\fewlarge_partialViewing_low_cat9.png,mask_img/000000028231.png,experiment,o,o,1281.095363
2,23,Female,Right,208,Block 2,0.8858917,0.1,TRUE,person,person,occlusion,high,mask,partial viewing,few large,Stimulus\all_stim\occlusion\partialviewing\fewlarge\high\fewlarge_partialViewing_high_person2.png,mask_img/000000019932.png,experiment,i,i,1283.095613
2,23,Female,Right,209,Block 2,1.1141356,0.1,TRUE,bus,bus,occlusion,control,mask,partial viewing,many small,Stimulus\all_stim\occlusion\partialviewing\manysmall\control\manysmall_partialViewing_control_bus8.png,mask_img/000000037782.png,experiment,e,e,1285.287323
2,23,Female,Right,210,Block 2,0.9419153,0.025,TRUE,banana,banana,occlusion,control,mask,partial viewing,few large,Stimulus\all_stim\occlusion\partialviewing\fewlarge\control\fewlarge_partialViewing_control_banana9.png,mask_img/000000000731.png,experiment,w,w,1287.087616
2,23,Female,Right,211,Block 2,1.057197,0.1,TRUE,person,person,occlusion,low,mask,partial viewing,few large,Stimulus\all_stim\occlusion\partialviewing\fewlarge\low\fewlarge_partialViewing_low_person7.png,mask_img/000000030526.png,experiment,i,i,1289.215284
2,23,Female,Right,212,Block 2,0.6159744,0.1,TRUE,tree,tree,occlusion,high,mask,partial viewing,few large,Stimulus\all_stim\occlusion\partialviewing\fewlarge\high\fewlarge_partialViewing_high_tree8.png,mask_img/000000022355.png,experiment,u,u,1290.767601
2,23,Female,Right,213,Block 2,0.8374697,0.1,TRUE,person,person,occlusion,low,mask,partial viewing,few large,Stimulus\all_stim\occlusion\partialviewing\fewlarge\low\fewlarge_partialViewing_low_person6.png,mask_img/000000030267.png,experiment,i,i,1292.59916
2,23,Female,Right,214,Block 2,0.972409,0.1,TRUE,bus,bus,occlusion,control,mask,partial viewing,few large,Stimulus\all_stim\occlusion\partialviewing\fewlarge\control\fewlarge_partialViewing_control_bus4.png,mask_img/000000005574.png,experiment,e,e,1294.375335
2,23,Female,Right,215,Block 2,0.7992577,0.025,TRUE,building,building,occlusion,low,mask,partial viewing,many small,Stimulus\all_stim\occlusion\partialviewing\manysmall\low\manysmall_partialViewing_low_building9.png,mask_img/000000058102.png,experiment,p,p,1296.207385
2,23,Female,Right,216,Block 2,0.8348807,0.05,TRUE,person,person,occlusion,high,mask,partial viewing,few large,Stimulus\all_stim\occlusion\partialviewing\fewlarge\high\fewlarge_partialViewing_high_person3.png,mask_img/000000020147.png,experiment,i,i,1298.02329
2,23,Female,Right,217,Block 2,0.8925241,0.1,TRUE,person,person,occlusion,low,mask,partial viewing,few large,Stimulus\all_stim\occlusion\partialviewing\fewlarge\low\fewlarge_partialViewing_low_person5.png,mask_img/000000029964.png,experiment,i,i,1299.823221
2,23,Female,Right,218,Block 2,0.8385567,0.05,TRUE,building,building,occlusion,control,mask,partial viewing,many small,Stimulus\all_stim\occlusion\partialviewing\manysmall\control\manysmall_partialViewing_control_building2.png,mask_img/000000035864.png,experiment,p,p,1301.471361
2,23,Female,Right,219,Block 2,0.8133382,0.025,TRUE,bird,bird,occlusion,control,mask,partial viewing,many small,Stimulus\all_stim\occlusion\partialviewing\manysmall\control\manysmall_partialViewing_control_bird10.png,mask_img/000000034304.png,experiment,q,q,1303.191529
2,23,Female,Right,220,Block 2,0.8643757,0.025,TRUE,tree,tree,occlusion,high,mask,partial viewing,few large,Stimulus\all_stim\occlusion\partialviewing\fewlarge\high\fewlarge_partialViewing_high_tree4.png,mask_img/000000021981.png,experiment,u,u,1305.103464
2,23,Female,Right,221,Block 2,0.9122682,0.1,TRUE,cat,cat,occlusion,high,mask,partial viewing,few large,Stimulus\all_stim\occlusion\partialviewing\fewlarge\high\fewlarge_partialViewing_high_cat2.png,mask_img/000000017352.png,experiment,o,o,1306.783155
2,23,Female,Right,222,Block 2,1.1276084,0.05,TRUE,bus,bus,occlusion,low,mask,partial viewing,many small,Stimulus\all_stim\occlusion\partialviewing\manysmall\low\manysmall_partialViewing_low_bus7.png,mask_img/000000058822.png,experiment,e,e,1308.719236
2,23,Female,Right,223,Block 2,0.8656433,0.05,TRUE,building,building,occlusion,high,mask,partial viewing,many small,Stimulus\all_stim\occlusion\partialviewing\manysmall\high\manysmall_partialViewing_high_building4.png,mask_img/000000046025.png,experiment,p,p,1310.671257
2,23,Female,Right,224,Block 2,0.8649632,0.1,TRUE,firehydrant,firehydrant,occlusion,high,mask,partial viewing,many small,Stimulus\all_stim\occlusion\partialviewing\manysmall\high\manysmall_partialViewing_high_firehydrant5.png,mask_img/000000050496.png,experiment,r,r,1312.58403
2,23,Female,Right,225,Block 2,0.8684823,0.05,TRUE,person,person,occlusion,low,mask,partial viewing,few large,Stimulus\all_stim\occlusion\partialviewing\fewlarge\low\fewlarge_partialViewing_low_person4.png,mask_img/000000029730.png,experiment,i,i,1314.159366
2,23,Female,Right,226,Block 2,0.8152219,0.025,TRUE,tree,tree,occlusion,high,mask,partial viewing,many small,Stimulus\all_stim\occlusion\partialviewing\manysmall\high\manysmall_partialViewing_high_tree8.png,mask_img/000000054334.png,experiment,u,u,1316.007385
2,23,Female,Right,227,Block 2,0.9306415,0.05,TRUE,person,person,occlusion,low,mask,partial viewing,many small,Stimulus\all_stim\occlusion\partialviewing\manysmall\low\manysmall_partialViewing_low_person2.png,mask_img/000000061867.png,experiment,i,i,1317.895372
2,23,Female,Right,228,Block 2,0.8039304001,0.1,TRUE,tree,tree,occlusion,high,mask,partial viewing,many small,Stimulus\all_stim\occlusion\partialviewing\manysmall\high\manysmall_partialViewing_high_tree8.png,mask_img/000000054334.png,experiment,u,u,1319.839293
2,23,Female,Right,229,Block 2,0.7368552,0.1,TRUE,building,building,occlusion,high,mask,partial viewing,many small,Stimulus\all_stim\occlusion\partialviewing\manysmall\high\manysmall_partialViewing_high_building9.png,mask_img/000000046345.png,experiment,p,p,1321.591456
2,23,Female,Right,230,Block 2,0.7745768,0.05,TRUE,building,building,occlusion,control,mask,partial viewing,many small,Stimulus\all_stim\occlusion\partialviewing\manysmall\control\manysmall_partialViewing_control_building4.png,mask_img/000000035985.png,experiment,p,p,1323.215195
2,23,Female,Right,231,Block 2,0.7118261,0.1,TRUE,bird,bird,occlusion,low,mask,partial viewing,few large,Stimulus\all_stim\occlusion\partialviewing\fewlarge\low\fewlarge_partialViewing_low_bird7.png,mask_img/000000024403.png,experiment,q,q,1325.017868
2,23,Female,Right,232,Block 2,0.8187847,0.025,TRUE,building,building,occlusion,high,mask,partial viewing,few large,Stimulus\all_stim\occlusion\partialviewing\fewlarge\high\fewlarge_partialViewing_high_building5.png,mask_img/000000014759.png,experiment,p,p,1326.615395
2,23,Female,Right,233,Block 2,0.824231,0.1,TRUE,banana,banana,occlusion,high,mask,partial viewing,many small,Stimulus\all_stim\occlusion\partialviewing\manysmall\high\manysmall_partialViewing_high_banana1.png,mask_img/000000041962.png,experiment,w,w,1328.359679
2,23,Female,Right,234,Block 2,0.8329746,0.025,TRUE,firehydrant,firehydrant,occlusion,high,mask,partial viewing,few large,Stimulus\all_stim\occlusion\partialviewing\fewlarge\high\fewlarge_partialViewing_high_firehydrant5.png,mask_img/000000018982.png,experiment,r,r,1330.215317
2,23,Female,Right,235,Block 2,0.7795431,0.1,TRUE,banana,banana,occlusion,control,mask,partial viewing,many small,Stimulus\all_stim\occlusion\partialviewing\manysmall\control\manysmall_partialViewing_control_banana6.png,mask_img/000000033756.png,experiment,w,w,1331.719426
2,23,Female,Right,236,Block 2,1.8451746,0.025,TRUE,firehydrant,firehydrant,occlusion,control,mask,partial viewing,many small,Stimulus\all_stim\occlusion\partialviewing\manysmall\control\manysmall_partialViewing_control_firehydrant5.png,mask_img/000000039211.png,experiment,r,r,1334.400143
2,23,Female,Right,237,Block 2,0.7010003,0.1,TRUE,building,building,occlusion,high,mask,partial viewing,few large,Stimulus\all_stim\occlusion\partialviewing\fewlarge\high\fewlarge_partialViewing_high_building1.png,mask_img/000000014335.png,experiment,p,p,1335.840024
2,23,Female,Right,238,Block 2,1.1771554,0.05,TRUE,banana,banana,occlusion,low,mask,partial viewing,few large,Stimulus\all_stim\occlusion\partialviewing\fewlarge\low\fewlarge_partialViewing_low_banana10.png,mask_img/000000022563.png,experiment,w,w,1338.071365
2,23,Female,Right,239,Block 2,0.8334193,0.05,TRUE,cat,cat,occlusion,control,mask,partial viewing,many small,Stimulus\all_stim\occlusion\partialviewing\manysmall\control\manysmall_partialViewing_control_cat6.png,mask_img/000000038753.png,experiment,o,o,1339.807379
2,23,Female,Right,240,Block 2,0.913868,0.1,TRUE,bus,bus,occlusion,control,mask,partial viewing,few large,Stimulus\all_stim\occlusion\partialviewing\fewlarge\control\fewlarge_partialViewing_control_bus5.png,mask_img/000000005615.png,experiment,e,e,1341.727404
2,23,Female,Right,241,Block 2,0.8532264,0.025,TRUE,person,person,occlusion,low,mask,partial viewing,few large,Stimulus\all_stim\occlusion\partialviewing\fewlarge\low\fewlarge_partialViewing_low_person8.png,mask_img/000000030611.png,experiment,i,i,1343.335392
2,23,Female,Right,242,Block 2,0.778189,0.05,TRUE,tree,tree,occlusion,control,mask,partial viewing,many small,Stimulus\all_stim\occlusion\partialviewing\manysmall\control\manysmall_partialViewing_control_tree7.png,mask_img/000000041434.png,experiment,u,u,1345.303357
2,23,Female,Right,243,Block 2,0.8432635,0.1,TRUE,firehydrant,firehydrant,occlusion,low,mask,partial viewing,many small,Stimulus\all_stim\occlusion\partialviewing\manysmall\low\manysmall_partialViewing_low_firehydrant4.png,mask_img/000000060610.png,experiment,r,r,1347.367483
2,23,Female,Right,244,Block 2,0.7648115,0.025,TRUE,banana,banana,occlusion,control,mask,partial viewing,few large,Stimulus\all_stim\occlusion\partialviewing\fewlarge\control\fewlarge_partialViewing_control_banana8.png,mask_img/000000000690.png,experiment,w,w,1348.927336
2,23,Female,Right,245,Block 2,0.7328588,0.05,TRUE,building,building,occlusion,control,mask,partial viewing,many small,Stimulus\all_stim\occlusion\partialviewing\manysmall\control\manysmall_partialViewing_control_building5.png,mask_img/000000036004.png,experiment,p,p,1350.687501
2,23,Female,Right,246,Block 2,0.775971,0.1,TRUE,firehydrant,firehydrant,occlusion,control,mask,partial viewing,few large,Stimulus\all_stim\occlusion\partialviewing\fewlarge\control\fewlarge_partialViewing_control_firehydrant4.png,mask_img/000000007952.png,experiment,r,r,1352.535757
2,23,Female,Right,247,Block 2,0.8445708,0.05,TRUE,bus,bus,occlusion,low,mask,partial viewing,few large,Stimulus\all_stim\occlusion\partialviewing\fewlarge\low\fewlarge_partialViewing_low_bus9.png,mask_img/000000027005.png,experiment,e,e,1354.503419
2,23,Female,Right,248,Block 2,0.7856591,0.025,TRUE,bus,bus,occlusion,control,mask,partial viewing,many small,Stimulus\all_stim\occlusion\partialviewing\manysmall\control\manysmall_partialViewing_control_bus5.png,mask_img/000000037140.png,experiment,e,e,1356.271323
2,23,Female,Right,249,Block 2,0.8129457,0.1,TRUE,person,person,occlusion,low,mask,partial viewing,few large,Stimulus\all_stim\occlusion\partialviewing\fewlarge\low\fewlarge_partialViewing_low_person3.png,mask_img/000000029506.png,experiment,i,i,1357.879398
2,23,Female,Right,250,Block 2,0.7314349,0.025,TRUE,building,building,occlusion,control,mask,partial viewing,many small,Stimulus\all_stim\occlusion\partialviewing\manysmall\control\manysmall_partialViewing_control_building10.png,mask_img/000000035857.png,experiment,p,p,1359.51133
2,23,Female,Right,251,Block 2,0.9233361,0.1,FALSE,person,banana,occlusion,high,mask,partial viewing,many small,Stimulus\all_stim\occlusion\partialviewing\manysmall\high\manysmall_partialViewing_high_person7.png,mask_img/000000052562.png,experiment,w,i,1361.231147
2,23,Female,Right,252,Block 2,0.9199951,0.025,TRUE,bird,bird,occlusion,low,mask,partial viewing,many small,Stimulus\all_stim\occlusion\partialviewing\manysmall\low\manysmall_partialViewing_low_bird7.png,mask_img/000000056036.png,experiment,q,q,1362.903384
2,23,Female,Right,253,Block 2,0.85336,0.1,TRUE,tree,tree,occlusion,high,mask,partial viewing,many small,Stimulus\all_stim\occlusion\partialviewing\manysmall\high\manysmall_partialViewing_high_tree2.png,mask_img/000000052901.png,experiment,u,u,1364.503204
2,23,Female,Right,254,Block 2,1.0539627,0.1,TRUE,bus,bus,occlusion,low,mask,partial viewing,many small,Stimulus\all_stim\occlusion\partialviewing\manysmall\low\manysmall_partialViewing_low_bus4.png,mask_img/000000058701.png,experiment,e,e,1366.41544
2,23,Female,Right,255,Block 2,0.8326434,0.025,TRUE,building,building,occlusion,high,mask,partial viewing,few large,Stimulus\all_stim\occlusion\partialviewing\fewlarge\high\fewlarge_partialViewing_high_building6.png,mask_img/000000014774.png,experiment,p,p,1368.143335
2,23,Female,Right,256,Block 2,0.7750101,0.05,TRUE,banana,banana,occlusion,low,mask,partial viewing,many small,Stimulus\all_stim\occlusion\partialviewing\manysmall\low\manysmall_partialViewing_low_banana7.png,mask_img/000000055594.png,experiment,w,w,1369.751466
2,23,Female,Right,257,Block 2,0.8185235,0.05,TRUE,person,person,occlusion,low,mask,partial viewing,many small,Stimulus\all_stim\occlusion\partialviewing\manysmall\low\manysmall_partialViewing_low_person4.png,mask_img/000000062131.png,experiment,i,i,1371.543254
2,23,Female,Right,258,Block 2,0.9028396,0.1,TRUE,banana,banana,occlusion,control,mask,partial viewing,many small,Stimulus\all_stim\occlusion\partialviewing\manysmall\control\manysmall_partialViewing_control_banana2.png,mask_img/000000033126.png,experiment,w,w,1373.551161
2,23,Female,Right,259,Block 2,0.8625866,0.1,TRUE,banana,banana,occlusion,low,mask,partial viewing,many small,Stimulus\all_stim\occlusion\partialviewing\manysmall\low\manysmall_partialViewing_low_banana6.png,mask_img/000000055460.png,experiment,w,w,1375.536076
2,23,Female,Right,260,Block 2,0.8384283,0.1,TRUE,firehydrant,firehydrant,occlusion,low,mask,partial viewing,few large,Stimulus\all_stim\occlusion\partialviewing\fewlarge\low\fewlarge_partialViewing_low_firehydrant6.png,mask_img/000000028842.png,experiment,r,r,1377.11148
2,23,Female,Right,261,Block 2,0.8480403,0.1,TRUE,banana,banana,occlusion,low,mask,partial viewing,few large,Stimulus\all_stim\occlusion\partialviewing\fewlarge\low\fewlarge_partialViewing_low_banana8.png,mask_img/000000023656.png,experiment,w,w,1378.855475
2,23,Female,Right,262,Block 2,0.8074785,0.1,TRUE,banana,banana,occlusion,high,mask,partial viewing,many small,Stimulus\all_stim\occlusion\partialviewing\manysmall\high\manysmall_partialViewing_high_banana2.png,mask_img/000000042408.png,experiment,w,w,1380.871332
2,23,Female,Right,263,Block 2,0.8410068,0.1,TRUE,person,person,occlusion,high,mask,partial viewing,many small,Stimulus\all_stim\occlusion\partialviewing\manysmall\high\manysmall_partialViewing_high_person5.png,mask_img/000000052250.png,experiment,i,i,1382.615419
2,23,Female,Right,264,Block 2,0.8392819,0.1,TRUE,building,building,occlusion,low,mask,partial viewing,many small,Stimulus\all_stim\occlusion\partialviewing\manysmall\low\manysmall_partialViewing_low_building4.png,mask_img/000000057782.png,experiment,p,p,1384.37556
2,23,Female,Right,265,Block 2,0.7615972999,0.025,TRUE,firehydrant,firehydrant,occlusion,control,mask,partial viewing,many small,Stimulus\all_stim\occlusion\partialviewing\manysmall\control\manysmall_partialViewing_control_firehydrant10.png,mask_img/000000039053.png,experiment,r,r,1386.175237
2,23,Female,Right,266,Block 2,0.7581921,0.05,TRUE,banana,banana,occlusion,control,mask,partial viewing,few large,Stimulus\all_stim\occlusion\partialviewing\fewlarge\control\fewlarge_partialViewing_control_banana2.png,mask_img/000000000312.png,experiment,w,w,1387.879321
2,23,Female,Right,267,Block 2,0.7264917,0.025,TRUE,banana,banana,occlusion,control,mask,partial viewing,few large,Stimulus\all_stim\occlusion\partialviewing\fewlarge\control\fewlarge_partialViewing_control_banana4.png,mask_img/000000000438.png,experiment,w,w,1389.583403
2,23,Female,Right,268,Block 2,0.7157575,0.025,TRUE,firehydrant,firehydrant,occlusion,control,mask,partial viewing,few large,Stimulus\all_stim\occlusion\partialviewing\fewlarge\control\fewlarge_partialViewing_control_firehydrant2.png,mask_img/000000007934.png,experiment,r,r,1391.343169
2,23,Female,Right,269,Block 2,0.75081,0.05,TRUE,firehydrant,firehydrant,occlusion,high,mask,partial viewing,few large,Stimulus\all_stim\occlusion\partialviewing\fewlarge\high\fewlarge_partialViewing_high_firehydrant9.png,mask_img/000000019725.png,experiment,r,r,1393.151459
2,23,Female,Right,270,Block 2,0.745216,0.025,TRUE,firehydrant,firehydrant,occlusion,low,mask,partial viewing,few large,Stimulus\all_stim\occlusion\partialviewing\fewlarge\low\fewlarge_partialViewing_low_firehydrant6.png,mask_img/000000028842.png,experiment,r,r,1394.887389
2,23,Female,Right,271,Block 2,0.8031265,0.1,TRUE,banana,banana,occlusion,low,mask,partial viewing,many small,Stimulus\all_stim\occlusion\partialviewing\manysmall\low\manysmall_partialViewing_low_banana8.png,mask_img/000000055630.png,experiment,w,w,1396.615541
2,23,Female,Right,272,Block 2,0.9230784,0.05,TRUE,cat,cat,occlusion,control,mask,partial viewing,few large,Stimulus\all_stim\occlusion\partialviewing\fewlarge\control\fewlarge_partialViewing_control_cat2.png,mask_img/000000006489.png,experiment,o,o,1398.335468
2,23,Female,Right,273,Block 2,0.7064881,0.025,TRUE,building,building,occlusion,low,mask,partial viewing,few large,Stimulus\all_stim\occlusion\partialviewing\fewlarge\low\fewlarge_partialViewing_low_building3.png,mask_img/000000024808.png,experiment,p,p,1399.754729
2,23,Female,Right,274,Block 2,1.1589631,0.05,TRUE,bird,bird,occlusion,low,mask,partial viewing,many small,Stimulus\all_stim\occlusion\partialviewing\manysmall\low\manysmall_partialViewing_low_bird9.png,mask_img/000000056641.png,experiment,q,q,1401.919475
2,23,Female,Right,275,Block 2,0.8477065,0.025,TRUE,cat,cat,occlusion,low,mask,partial viewing,few large,Stimulus\all_stim\occlusion\partialviewing\fewlarge\low\fewlarge_partialViewing_low_cat9.png,mask_img/000000028231.png,experiment,o,o,1403.695339
2,23,Female,Right,276,Block 2,0.8357055,0.025,TRUE,bird,bird,occlusion,control,mask,partial viewing,many small,Stimulus\all_stim\occlusion\partialviewing\manysmall\control\manysmall_partialViewing_control_bird3.png,mask_img/000000034570.png,experiment,q,q,1405.623361
2,23,Female,Right,277,Block 2,1.1611217,0.025,TRUE,bus,bus,occlusion,high,mask,partial viewing,many small,Stimulus\all_stim\occlusion\partialviewing\manysmall\high\manysmall_partialViewing_high_bus8.png,mask_img/000000048169.png,experiment,e,e,1407.967261
2,23,Female,Right,278,Block 2,1.0661836,0.05,TRUE,bus,bus,occlusion,high,mask,partial viewing,many small,Stimulus\all_stim\occlusion\partialviewing\manysmall\high\manysmall_partialViewing_high_bus8.png,mask_img/000000048169.png,experiment,e,e,1410.184047
2,23,Female,Right,279,Block 2,1.3477956,0.025,TRUE,bus,bus,occlusion,high,mask,partial viewing,few large,Stimulus\all_stim\occlusion\partialviewing\fewlarge\high\fewlarge_partialViewing_high_bus7.png,mask_img/000000016238.png,experiment,e,e,1412.671417
2,23,Female,Right,280,Block 2,0.7658195,0.025,TRUE,tree,tree,occlusion,low,mask,partial viewing,few large,Stimulus\all_stim\occlusion\partialviewing\fewlarge\low\fewlarge_partialViewing_low_tree6.png,mask_img/000000032720.png,experiment,u,u,1414.615539
2,23,Female,Right,281,Block 2,0.7680262,0.025,TRUE,bird,bird,occlusion,low,mask,partial viewing,few large,Stimulus\all_stim\occlusion\partialviewing\fewlarge\low\fewlarge_partialViewing_low_bird1.png,mask_img/000000023984.png,experiment,q,q,1416.503264
2,23,Female,Right,282,Block 2,0.736225,0.025,TRUE,tree,tree,occlusion,high,mask,partial viewing,few large,Stimulus\all_stim\occlusion\partialviewing\fewlarge\high\fewlarge_partialViewing_high_tree7.png,mask_img/000000022256.png,experiment,u,u,1418.127919
2,23,Female,Right,283,Block 2,0.855112,0.05,TRUE,bus,bus,occlusion,high,mask,partial viewing,few large,Stimulus\all_stim\occlusion\partialviewing\fewlarge\high\fewlarge_partialViewing_high_bus1.png,mask_img/000000015645.png,experiment,e,e,1419.719161
2,23,Female,Right,284,Block 2,0.7208282001,0.05,TRUE,building,building,occlusion,high,mask,partial viewing,many small,Stimulus\all_stim\occlusion\partialviewing\manysmall\high\manysmall_partialViewing_high_building3.png,mask_img/000000045655.png,experiment,p,p,1421.21535
2,23,Female,Right,285,Block 2,0.8442403,0.1,TRUE,bus,bus,occlusion,control,mask,partial viewing,many small,Stimulus\all_stim\occlusion\partialviewing\manysmall\control\manysmall_partialViewing_control_bus9.png,mask_img/000000037864.png,experiment,e,e,1422.888178
2,23,Female,Right,286,Block 2,0.7524377,0.025,TRUE,bus,bus,occlusion,control,mask,partial viewing,few large,Stimulus\all_stim\occlusion\partialviewing\fewlarge\control\fewlarge_partialViewing_control_bus9.png,mask_img/000000006263.png,experiment,e,e,1424.399723
2,23,Female,Right,287,Block 2,0.7948747,0.1,TRUE,firehydrant,firehydrant,occlusion,control,mask,partial viewing,few large,Stimulus\all_stim\occlusion\partialviewing\fewlarge\control\fewlarge_partialViewing_control_firehydrant1.png,mask_img/000000007740.png,experiment,r,r,1426.207425
2,23,Female,Right,288,Block 2,0.8728523,0.05,TRUE,building,building,occlusion,low,mask,partial viewing,few large,Stimulus\all_stim\occlusion\partialviewing\fewlarge\low\fewlarge_partialViewing_low_building6.png,mask_img/000000025143.png,experiment,p,p,1455.975471
2,23,Female,Right,289,Block 3,1.3099506,0.025,FALSE,person,bird,occlusion,high,mask,partial viewing,many small,Stimulus\all_stim\occlusion\partialviewing\manysmall\high\manysmall_partialViewing_high_person4.png,mask_img/000000052087.png,experiment,q,i,1458.031516
2,23,Female,Right,290,Block 3,0.827411,0.1,TRUE,tree,tree,occlusion,high,mask,partial viewing,few large,Stimulus\all_stim\occlusion\partialviewing\fewlarge\high\fewlarge_partialViewing_high_tree2.png,mask_img/000000021641.png,experiment,u,u,1459.991229
2,23,Female,Right,291,Block 3,0.7664223,0.025,TRUE,bird,bird,occlusion,low,mask,partial viewing,many small,Stimulus\all_stim\occlusion\partialviewing\manysmall\low\manysmall_partialViewing_low_bird6.png,mask_img/000000056007.png,experiment,q,q,1461.759218
2,23,Female,Right,292,Block 3,0.8426022,0.025,TRUE,bird,bird,occlusion,high,mask,partial viewing,few large,Stimulus\all_stim\occlusion\partialviewing\fewlarge\high\fewlarge_partialViewing_high_bird3.png,mask_img/000000013455.png,experiment,q,q,1463.687474
2,23,Female,Right,293,Block 3,0.7906433,0.05,TRUE,firehydrant,firehydrant,occlusion,low,mask,partial viewing,many small,Stimulus\all_stim\occlusion\partialviewing\manysmall\low\manysmall_partialViewing_low_firehydrant7.png,mask_img/000000061084.png,experiment,r,r,1465.559228
2,23,Female,Right,294,Block 3,0.7574345,0.025,TRUE,banana,banana,occlusion,control,mask,partial viewing,few large,Stimulus\all_stim\occlusion\partialviewing\fewlarge\control\fewlarge_partialViewing_control_banana2.png,mask_img/000000000312.png,experiment,w,w,1467.431356
2,23,Female,Right,295,Block 3,0.7410571,0.025,TRUE,cat,cat,occlusion,control,mask,partial viewing,few large,Stimulus\all_stim\occlusion\partialviewing\fewlarge\control\fewlarge_partialViewing_control_cat8.png,mask_img/000000007393.png,experiment,o,o,1469.071242
2,23,Female,Right,296,Block 3,1.0132153,0.05,TRUE,cat,cat,occlusion,high,mask,partial viewing,many small,Stimulus\all_stim\occlusion\partialviewing\manysmall\high\manysmall_partialViewing_high_cat8.png,mask_img/000000049763.png,experiment,o,o,1470.935456
2,23,Female,Right,297,Block 3,0.7046955,0.025,TRUE,tree,tree,occlusion,control,mask,partial viewing,many small,Stimulus\all_stim\occlusion\partialviewing\manysmall\control\manysmall_partialViewing_control_tree7.png,mask_img/000000041434.png,experiment,u,u,1472.751344
2,23,Female,Right,298,Block 3,0.7359069,0.05,TRUE,cat,cat,occlusion,control,mask,partial viewing,few large,Stimulus\all_stim\occlusion\partialviewing\fewlarge\control\fewlarge_partialViewing_control_cat8.png,mask_img/000000007393.png,experiment,o,o,1474.439282
2,23,Female,Right,299,Block 3,0.7529071,0.025,TRUE,firehydrant,firehydrant,occlusion,control,mask,partial viewing,few large,Stimulus\all_stim\occlusion\partialviewing\fewlarge\control\fewlarge_partialViewing_control_firehydrant7.png,mask_img/000000008053.png,experiment,r,r,1476.25599
2,23,Female,Right,300,Block 3,0.7208863,0.05,TRUE,cat,cat,occlusion,high,mask,partial viewing,many small,Stimulus\all_stim\occlusion\partialviewing\manysmall\high\manysmall_partialViewing_high_cat1.png,mask_img/000000048664.png,experiment,o,o,1478.023903
2,23,Female,Right,301,Block 3,0.5616873,0.1,TRUE,firehydrant,firehydrant,occlusion,control,mask,partial viewing,few large,Stimulus\all_stim\occlusion\partialviewing\fewlarge\control\fewlarge_partialViewing_control_firehydrant8.png,mask_img/000000008193.png,experiment,r,r,1479.710903
2,23,Female,Right,302,Block 3,1.2233711,0.025,TRUE,tree,tree,occlusion,high,mask,partial viewing,few large,Stimulus\all_stim\occlusion\partialviewing\fewlarge\high\fewlarge_partialViewing_high_tree10.png,mask_img/000000021419.png,experiment,u,u,1481.679889
2,23,Female,Right,303,Block 3,0.9326115,0.025,TRUE,bird,bird,occlusion,high,mask,partial viewing,few large,Stimulus\all_stim\occlusion\partialviewing\fewlarge\high\fewlarge_partialViewing_high_bird6.png,mask_img/000000013944.png,experiment,q,q,1483.671273
2,23,Female,Right,304,Block 3,0.7705542,0.025,TRUE,firehydrant,firehydrant,occlusion,high,mask,partial viewing,many small,Stimulus\all_stim\occlusion\partialviewing\manysmall\high\manysmall_partialViewing_high_firehydrant7.png,mask_img/000000050790.png,experiment,r,r,1485.399327
2,23,Female,Right,305,Block 3,0.8454604,0.1,TRUE,firehydrant,firehydrant,occlusion,high,mask,partial viewing,many small,Stimulus\all_stim\occlusion\partialviewing\manysmall\high\manysmall_partialViewing_high_firehydrant1.png,mask_img/000000049987.png,experiment,r,r,1487.271193
2,23,Female,Right,306,Block 3,0.7307147,0.025,TRUE,tree,tree,occlusion,control,mask,partial viewing,few large,Stimulus\all_stim\occlusion\partialviewing\fewlarge\control\fewlarge_partialViewing_control_tree7.png,mask_img/000000011504.png,experiment,u,u,1488.799633
2,23,Female,Right,307,Block 3,0.858938,0.025,TRUE,banana,banana,occlusion,low,mask,partial viewing,few large,Stimulus\all_stim\occlusion\partialviewing\fewlarge\low\fewlarge_partialViewing_low_banana1.png,mask_img/000000022545.png,experiment,w,w,1490.639285
2,23,Female,Right,308,Block 3,1.1822619,0.025,TRUE,banana,banana,occlusion,control,mask,partial viewing,few large,Stimulus\all_stim\occlusion\partialviewing\fewlarge\control\fewlarge_partialViewing_control_banana1.png,mask_img/000000000042.png,experiment,w,w,1492.967777
2,23,Female,Right,309,Block 3,0.8498321,0.1,TRUE,tree,tree,occlusion,high,mask,partial viewing,few large,Stimulus\all_stim\occlusion\partialviewing\fewlarge\high\fewlarge_partialViewing_high_tree7.png,mask_img/000000022256.png,experiment,u,u,1494.711403
2,23,Female,Right,310,Block 3,1.0637083,0.025,TRUE,bird,bird,occlusion,control,mask,partial viewing,few large,Stimulus\all_stim\occlusion\partialviewing\fewlarge\control\fewlarge_partialViewing_control_bird9.png,mask_img/000000002892.png,experiment,q,q,1496.863266
2,23,Female,Right,311,Block 3,1.1067688,0.025,FALSE,bird,cat,occlusion,high,mask,partial viewing,many small,Stimulus\all_stim\occlusion\partialviewing\manysmall\high\manysmall_partialViewing_high_bird10.png,mask_img/000000044065.png,experiment,o,q,1498.743291
2,23,Female,Right,312,Block 3,0.8650859,0.1,FALSE,building,firehydrant,occlusion,high,mask,partial viewing,many small,Stimulus\all_stim\occlusion\partialviewing\manysmall\high\manysmall_partialViewing_high_building4.png,mask_img/000000046025.png,experiment,r,p,1500.759408
2,23,Female,Right,313,Block 3,0.8590705,0.05,TRUE,bird,bird,occlusion,high,mask,partial viewing,many small,Stimulus\all_stim\occlusion\partialviewing\manysmall\high\manysmall_partialViewing_high_bird2.png,mask_img/000000044117.png,experiment,q,q,1502.47942
2,23,Female,Right,314,Block 3,0.8212725,0.025,TRUE,firehydrant,firehydrant,occlusion,control,mask,partial viewing,many small,Stimulus\all_stim\occlusion\partialviewing\manysmall\control\manysmall_partialViewing_control_firehydrant7.png,mask_img/000000039475.png,experiment,r,r,1504.247333
2,23,Female,Right,315,Block 3,0.7539745,0.025,TRUE,cat,cat,occlusion,high,mask,partial viewing,few large,Stimulus\all_stim\occlusion\partialviewing\fewlarge\high\fewlarge_partialViewing_high_cat9.png,mask_img/000000017858.png,experiment,o,o,1505.847431
2,23,Female,Right,316,Block 3,0.8215124,0.025,TRUE,building,building,occlusion,low,mask,partial viewing,many small,Stimulus\all_stim\occlusion\partialviewing\manysmall\low\manysmall_partialViewing_low_building10.png,mask_img/000000057068.png,experiment,p,p,1507.463634
2,23,Female,Right,317,Block 3,0.8127063,0.1,TRUE,banana,banana,occlusion,control,mask,partial viewing,few large,Stimulus\all_stim\occlusion\partialviewing\fewlarge\control\fewlarge_partialViewing_control_banana4.png,mask_img/000000000438.png,experiment,w,w,1509.367355
2,23,Female,Right,318,Block 3,0.9231544,0.1,TRUE,bus,bus,occlusion,high,mask,partial viewing,many small,Stimulus\all_stim\occlusion\partialviewing\manysmall\high\manysmall_partialViewing_high_bus1.png,mask_img/000000046676.png,experiment,e,e,1511.319589
2,23,Female,Right,319,Block 3,0.8181013,0.025,TRUE,building,building,occlusion,low,mask,partial viewing,many small,Stimulus\all_stim\occlusion\partialviewing\manysmall\low\manysmall_partialViewing_low_building5.png,mask_img/000000057930.png,experiment,p,p,1513.319273
2,23,Female,Right,320,Block 3,0.8108138,0.05,TRUE,person,person,occlusion,low,mask,partial viewing,few large,Stimulus\all_stim\occlusion\partialviewing\fewlarge\low\fewlarge_partialViewing_low_person9.png,mask_img/000000031017.png,experiment,i,i,1514.815452
2,23,Female,Right,321,Block 3,0.8045194,0.1,TRUE,person,person,occlusion,control,mask,partial viewing,many small,Stimulus\all_stim\occlusion\partialviewing\manysmall\control\manysmall_partialViewing_control_person5.png,mask_img/000000040275.png,experiment,i,i,1516.671714
2,23,Female,Right,322,Block 3,0.8669525,0.05,TRUE,banana,banana,occlusion,high,mask,partial viewing,few large,Stimulus\all_stim\occlusion\partialviewing\fewlarge\high\fewlarge_partialViewing_high_banana3.png,mask_img/000000012313.png,experiment,w,w,1518.271415
2,23,Female,Right,323,Block 3,1.0768387,0.025,FALSE,banana,bird,occlusion,low,mask,partial viewing,many small,Stimulus\all_stim\occlusion\partialviewing\manysmall\low\manysmall_partialViewing_low_banana10.png,mask_img/000000054723.png,experiment,q,w,1520.087465
2,23,Female,Right,324,Block 3,0.7507379,0.025,TRUE,building,building,occlusion,low,mask,partial viewing,few large,Stimulus\all_stim\occlusion\partialviewing\fewlarge\low\fewlarge_partialViewing_low_building7.png,mask_img/000000025192.png,experiment,p,p,1521.887706
2,23,Female,Right,325,Block 3,0.8496754,0.05,TRUE,bus,bus,occlusion,high,mask,partial viewing,many small,Stimulus\all_stim\occlusion\partialviewing\manysmall\high\manysmall_partialViewing_high_bus6.png,mask_img/000000047407.png,experiment,e,e,1523.575362
2,23,Female,Right,326,Block 3,0.8399513,0.025,TRUE,bus,bus,occlusion,high,mask,partial viewing,many small,Stimulus\all_stim\occlusion\partialviewing\manysmall\high\manysmall_partialViewing_high_bus3.png,mask_img/000000047229.png,experiment,e,e,1525.423354
2,23,Female,Right,327,Block 3,0.8578514,0.05,TRUE,banana,banana,occlusion,high,mask,partial viewing,few large,Stimulus\all_stim\occlusion\partialviewing\fewlarge\high\fewlarge_partialViewing_high_banana9.png,mask_img/000000012999.png,experiment,w,w,1526.983478
2,23,Female,Right,328,Block 3,0.8658289,0.1,TRUE,bus,bus,occlusion,control,mask,partial viewing,many small,Stimulus\all_stim\occlusion\partialviewing\manysmall\control\manysmall_partialViewing_control_bus2.png,mask_img/000000036622.png,experiment,e,e,1528.647383
2,23,Female,Right,329,Block 3,0.80164,0.05,TRUE,tree,tree,occlusion,high,mask,partial viewing,few large,Stimulus\all_stim\occlusion\partialviewing\fewlarge\high\fewlarge_partialViewing_high_tree4.png,mask_img/000000021981.png,experiment,u,u,1530.551364
2,23,Female,Right,330,Block 3,0.8568232,0.05,TRUE,bird,bird,occlusion,control,mask,partial viewing,few large,Stimulus\all_stim\occlusion\partialviewing\fewlarge\control\fewlarge_partialViewing_control_bird7.png,mask_img/000000002774.png,experiment,q,q,1532.22406
2,23,Female,Right,331,Block 3,0.7126303,0.025,TRUE,building,building,occlusion,low,mask,partial viewing,many small,Stimulus\all_stim\occlusion\partialviewing\manysmall\low\manysmall_partialViewing_low_building6.png,mask_img/000000057979.png,experiment,p,p,1534.039156
2,23,Female,Right,332,Block 3,0.8751754,0.1,TRUE,building,building,occlusion,control,mask,partial viewing,few large,Stimulus\all_stim\occlusion\partialviewing\fewlarge\control\fewlarge_partialViewing_control_building1.png,mask_img/000000003084.png,experiment,p,p,1535.887849
2,23,Female,Right,333,Block 3,0.7856449,0.1,TRUE,tree,tree,occlusion,control,mask,partial viewing,many small,Stimulus\all_stim\occlusion\partialviewing\manysmall\control\manysmall_partialViewing_control_tree8.png,mask_img/000000041577.png,experiment,u,u,1537.391402
2,23,Female,Right,334,Block 3,0.7525236999,0.025,TRUE,banana,banana,occlusion,high,mask,partial viewing,many small,Stimulus\all_stim\occlusion\partialviewing\manysmall\high\manysmall_partialViewing_high_banana7.png,mask_img/000000043024.png,experiment,w,w,1539.24754
2,23,Female,Right,335,Block 3,0.7405487,0.05,TRUE,tree,tree,occlusion,high,mask,partial viewing,few large,Stimulus\all_stim\occlusion\partialviewing\fewlarge\high\fewlarge_partialViewing_high_tree8.png,mask_img/000000022355.png,experiment,u,u,1540.663221
2,23,Female,Right,336,Block 3,0.8016212,0.1,TRUE,bus,bus,occlusion,high,mask,partial viewing,many small,Stimulus\all_stim\occlusion\partialviewing\manysmall\high\manysmall_partialViewing_high_bus6.png,mask_img/000000047407.png,experiment,e,e,1542.423409
2,23,Female,Right,337,Block 3,0.7949919,0.025,TRUE,banana,banana,occlusion,control,mask,partial viewing,many small,Stimulus\all_stim\occlusion\partialviewing\manysmall\control\manysmall_partialViewing_control_banana8.png,mask_img/000000033904.png,experiment,w,w,1544.335182
2,23,Female,Right,338,Block 3,0.6975952,0.05,TRUE,firehydrant,firehydrant,occlusion,control,mask,partial viewing,few large,Stimulus\all_stim\occlusion\partialviewing\fewlarge\control\fewlarge_partialViewing_control_firehydrant5.png,mask_img/000000008006.png,experiment,r,r,1545.776417
2,23,Female,Right,339,Block 3,0.7604296,0.025,TRUE,banana,banana,occlusion,high,mask,partial viewing,few large,Stimulus\all_stim\occlusion\partialviewing\fewlarge\high\fewlarge_partialViewing_high_banana3.png,mask_img/000000012313.png,experiment,w,w,1547.487302
2,23,Female,Right,340,Block 3,0.7636341,0.025,TRUE,building,building,occlusion,high,mask,partial viewing,many small,Stimulus\all_stim\occlusion\partialviewing\manysmall\high\manysmall_partialViewing_high_building10.png,mask_img/000000044989.png,experiment,p,p,1549.343537
2,23,Female,Right,341,Block 3,0.8492404,0.1,TRUE,person,person,occlusion,control,mask,partial viewing,many small,Stimulus\all_stim\occlusion\partialviewing\manysmall\control\manysmall_partialViewing_control_person8.png,mask_img/000000040466.png,experiment,i,i,1551.207432
2,23,Female,Right,342,Block 3,0.8500053,0.1,TRUE,bird,bird,occlusion,high,mask,partial viewing,many small,Stimulus\all_stim\occlusion\partialviewing\manysmall\high\manysmall_partialViewing_high_bird9.png,mask_img/000000044946.png,experiment,q,q,1552.799645
2,23,Female,Right,343,Block 3,0.7945544,0.1,TRUE,tree,tree,occlusion,low,mask,partial viewing,many small,Stimulus\all_stim\occlusion\partialviewing\manysmall\low\manysmall_partialViewing_low_tree1.png,mask_img/000000062690.png,experiment,u,u,1554.415417
2,23,Female,Right,344,Block 3,0.7611025,0.05,TRUE,firehydrant,firehydrant,occlusion,control,mask,partial viewing,few large,Stimulus\all_stim\occlusion\partialviewing\fewlarge\control\fewlarge_partialViewing_control_firehydrant7.png,mask_img/000000008053.png,experiment,r,r,1555.951211
2,23,Female,Right,345,Block 3,0.7007620001,0.05,TRUE,building,building,occlusion,control,mask,partial viewing,many small,Stimulus\all_stim\occlusion\partialviewing\manysmall\control\manysmall_partialViewing_control_building6.png,mask_img/000000036006.png,experiment,p,p,1557.81612
2,23,Female,Right,346,Block 3,1.1693442,0.05,TRUE,cat,cat,occlusion,low,mask,partial viewing,many small,Stimulus\all_stim\occlusion\partialviewing\manysmall\low\manysmall_partialViewing_low_cat5.png,mask_img/000000059660.png,experiment,o,o,1559.767536
2,23,Female,Right,347,Block 3,0.8330096,0.1,TRUE,bird,bird,occlusion,low,mask,partial viewing,many small,Stimulus\all_stim\occlusion\partialviewing\manysmall\low\manysmall_partialViewing_low_bird10.png,mask_img/000000055733.png,experiment,q,q,1561.327298
2,23,Female,Right,348,Block 3,0.7965393,0.1,TRUE,bird,bird,occlusion,low,mask,partial viewing,many small,Stimulus\all_stim\occlusion\partialviewing\manysmall\low\manysmall_partialViewing_low_bird5.png,mask_img/000000055942.png,experiment,q,q,1563.111338
2,23,Female,Right,349,Block 3,0.762012,0.025,TRUE,banana,banana,occlusion,high,mask,partial viewing,few large,Stimulus\all_stim\occlusion\partialviewing\fewlarge\high\fewlarge_partialViewing_high_banana5.png,mask_img/000000012543.png,experiment,w,w,1564.943841
2,23,Female,Right,350,Block 3,0.6739967,0.025,TRUE,firehydrant,firehydrant,occlusion,control,mask,partial viewing,few large,Stimulus\all_stim\occlusion\partialviewing\fewlarge\control\fewlarge_partialViewing_control_firehydrant4.png,mask_img/000000007952.png,experiment,r,r,1566.652672
2,23,Female,Right,351,Block 3,0.8153915,0.1,TRUE,person,person,occlusion,low,mask,partial viewing,many small,Stimulus\all_stim\occlusion\partialviewing\manysmall\low\manysmall_partialViewing_low_person3.png,mask_img/000000062128.png,experiment,i,i,1568.263424
2,23,Female,Right,352,Block 3,0.7581654,0.025,TRUE,banana,banana,occlusion,low,mask,partial viewing,few large,Stimulus\all_stim\occlusion\partialviewing\fewlarge\low\fewlarge_partialViewing_low_banana9.png,mask_img/000000023967.png,experiment,w,w,1570.183523
2,23,Female,Right,353,Block 3,1.092151,0.025,TRUE,tree,tree,occlusion,low,mask,partial viewing,few large,Stimulus\all_stim\occlusion\partialviewing\fewlarge\low\fewlarge_partialViewing_low_tree1.png,mask_img/000000031053.png,experiment,u,u,1571.991363
2,23,Female,Right,354,Block 3,0.7582659,0.025,TRUE,building,building,occlusion,high,mask,partial viewing,many small,Stimulus\all_stim\occlusion\partialviewing\manysmall\high\manysmall_partialViewing_high_building5.png,mask_img/000000046029.png,experiment,p,p,1573.896073
2,23,Female,Right,355,Block 3,0.7769778,0.05,TRUE,bird,bird,occlusion,control,mask,partial viewing,many small,Stimulus\all_stim\occlusion\partialviewing\manysmall\control\manysmall_partialViewing_control_bird3.png,mask_img/000000034570.png,experiment,q,q,1575.367274
2,23,Female,Right,356,Block 3,0.7418527,0.1,TRUE,banana,banana,occlusion,low,mask,partial viewing,few large,Stimulus\all_stim\occlusion\partialviewing\fewlarge\low\fewlarge_partialViewing_low_banana7.png,mask_img/000000023511.png,experiment,w,w,1577.14363
2,23,Female,Right,357,Block 3,1.1133209,0.05,TRUE,bus,bus,occlusion,control,mask,partial viewing,few large,Stimulus\all_stim\occlusion\partialviewing\fewlarge\control\fewlarge_partialViewing_control_bus2.png,mask_img/000000005359.png,experiment,e,e,1579.351861
2,23,Female,Right,358,Block 3,0.7661258,0.1,TRUE,banana,banana,occlusion,low,mask,partial viewing,many small,Stimulus\all_stim\occlusion\partialviewing\manysmall\low\manysmall_partialViewing_low_banana3.png,mask_img/000000054875.png,experiment,w,w,1581.095421
2,23,Female,Right,359,Block 3,0.7942168,0.05,TRUE,banana,banana,occlusion,high,mask,partial viewing,many small,Stimulus\all_stim\occlusion\partialviewing\manysmall\high\manysmall_partialViewing_high_banana1.png,mask_img/000000041962.png,experiment,w,w,1583.031311
2,23,Female,Right,360,Block 3,0.9580856,0.05,TRUE,banana,banana,occlusion,low,mask,partial viewing,many small,Stimulus\all_stim\occlusion\partialviewing\manysmall\low\manysmall_partialViewing_low_banana3.png,mask_img/000000054875.png,experiment,w,w,1584.759233
2,23,Female,Right,361,Block 3,0.7616703,0.05,TRUE,person,person,occlusion,control,mask,partial viewing,few large,Stimulus\all_stim\occlusion\partialviewing\fewlarge\control\fewlarge_partialViewing_control_person7.png,mask_img/000000009648.png,experiment,i,i,1586.287206
2,23,Female,Right,362,Block 3,0.8368541,0.1,TRUE,banana,banana,occlusion,control,mask,partial viewing,few large,Stimulus\all_stim\occlusion\partialviewing\fewlarge\control\fewlarge_partialViewing_control_banana9.png,mask_img/000000000731.png,experiment,w,w,1588.039507
2,23,Female,Right,363,Block 3,0.7424894,0.05,TRUE,tree,tree,occlusion,control,mask,partial viewing,few large,Stimulus\all_stim\occlusion\partialviewing\fewlarge\control\fewlarge_partialViewing_control_tree3.png,mask_img/000000010566.png,experiment,u,u,1589.847486
2,23,Female,Right,364,Block 3,0.7907214,0.025,TRUE,bird,bird,occlusion,control,mask,partial viewing,few large,Stimulus\all_stim\occlusion\partialviewing\fewlarge\control\fewlarge_partialViewing_control_bird3.png,mask_img/000000001810.png,experiment,q,q,1591.759423
2,23,Female,Right,365,Block 3,0.7872775,0.1,FALSE,cat,bird,occlusion,high,mask,partial viewing,many small,Stimulus\all_stim\occlusion\partialviewing\manysmall\high\manysmall_partialViewing_high_cat3.png,mask_img/000000049254.png,experiment,q,o,1593.623426
2,23,Female,Right,366,Block 3,0.8876653,0.025,TRUE,building,building,occlusion,high,mask,partial viewing,few large,Stimulus\all_stim\occlusion\partialviewing\fewlarge\high\fewlarge_partialViewing_high_building3.png,mask_img/000000014567.png,experiment,p,p,1595.255223
