Version,pt_num,Age,Gender,Handedness,trial_nbr,block_number,rt,soa,acc,category,choiced_category,manipulation,difficulty,mask,type_occl,size_occl,filename,mask_filename,task,pressed_key,correct_key,Experiment Duration
V3,17,23,Female,Right,1,Training,2.1421299999929033,0.025,false,bird,building,occlusion,high,mask,partial viewing,few large,Training_Stimulus\fewlarge_partialViewing_high_bird4.png,mask_img/000000000731.png,training,u,e,149.79512970001088
V3,17,23,Female,Right,2,Training,1.9300637999986066,0.05,true,person,person,occlusion,high,mask,partial viewing,few large,Training_Stimulus\fewlarge_partialViewing_high_person189.png,mask_img/000000001997.png,training,q,q,153.15457300000708
V3,17,23,Female,Right,3,Training,1.6973063000041293,0.025,true,bird,bird,occlusion,control,mask,partial viewing,few large,Training_Stimulus\fewlarge_partialViewing_control_bird4.png,mask_img/000000000109.png,training,e,e,156.2966216000059
V3,17,23,Female,Right,4,Training,2.266663199989125,0.025,false,banana,building,occlusion,low,mask,partial viewing,many small,Training_Stimulus\manysmall_partialViewing_low_banana454.png,mask_img/000000006437.png,training,u,i,160.10920070001157
V3,17,23,Female,Right,5,Training,0.7551850000018021,0.025,true,person,person,occlusion,high,mask,partial viewing,few large,Training_Stimulus\fewlarge_partialViewing_high_person189.png,mask_img/000000001997.png,training,q,q,162.10922680000658
V3,17,23,Female,Right,6,Training,2.2756635999976425,0.1,false,tree,bird,occlusion,high,mask,partial viewing,many small,Training_Stimulus\manysmall_partialViewing_high_tree9.png,mask_img/000000006263.png,training,e,p,165.6159190000035
V3,17,23,Female,Right,7,Training,0.8940972999989754,0.1,true,person,person,occlusion,control,mask,partial viewing,many small,Training_Stimulus\manysmall_partialViewing_control_person189.png,mask_img/000000005142.png,training,q,q,167.7722375000012
V3,17,23,Female,Right,8,Training,1.9850462000031257,0.025,false,tree,bird,occlusion,high,mask,partial viewing,few large,Training_Stimulus\fewlarge_partialViewing_high_tree9.png,mask_img/000000002197.png,training,e,p,171.16426180000417
V3,17,23,Female,Right,9,Training,2.0931876999966335,0.05,true,firehydrant,firehydrant,occlusion,control,mask,partial viewing,many small,Training_Stimulus\manysmall_partialViewing_control_firehydrant90.png,mask_img/000000005131.png,training,r,r,174.35143840000092
V3,17,23,Female,Right,10,Training,0.9148906999907922,0.025,true,firehydrant,firehydrant,occlusion,low,mask,partial viewing,few large,Training_Stimulus\fewlarge_partialViewing_low_firehydrant90.png,mask_img/000000003225.png,training,r,r,176.36738680000417
V3,17,23,Female,Right,11,Training,2.942973700002767,0.1,false,tree,bus,occlusion,low,mask,partial viewing,few large,Training_Stimulus\fewlarge_partialViewing_low_tree9.png,mask_img/000000003694.png,training,w,p,180.52501640000264
V3,17,23,Female,Right,12,Training,0.8933557999989716,0.1,true,person,person,occlusion,low,mask,partial viewing,few large,Training_Stimulus\fewlarge_partialViewing_low_person189.png,mask_img/000000003483.png,training,q,q,182.55629520000366
V3,17,23,Female,Right,13,Training,1.4572733000095468,0.025,false,bird,person,occlusion,low,mask,partial viewing,many small,Training_Stimulus\manysmall_partialViewing_low_bird4.png,mask_img/000000006481.png,training,q,e,185.50932810000086
V3,17,23,Female,Right,14,Training,1.616546900011599,0.05,true,banana,banana,occlusion,control,mask,partial viewing,many small,Training_Stimulus\manysmall_partialViewing_control_banana454.png,mask_img/000000004239.png,training,i,i,188.29072230000747
V3,17,23,Female,Right,15,Training,1.7504435000009835,0.1,false,tree,building,occlusion,low,mask,partial viewing,many small,Training_Stimulus\manysmall_partialViewing_low_tree9.png,mask_img/000000007325.png,training,u,p,191.33732109999983
V3,17,23,Female,Right,16,Training,2.100439300003927,0.025,true,bird,bird,occlusion,low,mask,partial viewing,few large,Training_Stimulus\fewlarge_partialViewing_low_bird4.png,mask_img/000000002774.png,training,e,e,194.9064095000067
V3,17,23,Female,Right,17,Training,2.196598399998038,0.025,true,cat,cat,occlusion,control,mask,partial viewing,few large,Training_Stimulus\fewlarge_partialViewing_control_cat432.png,mask_img/000000000438.png,training,o,o,198.6563174000039
V3,17,23,Female,Right,18,Training,2.145063100004336,0.1,false,banana,firehydrant,occlusion,low,mask,partial viewing,many small,Training_Stimulus\manysmall_partialViewing_low_banana454.png,mask_img/000000006437.png,training,r,i,202.0584009000013
V3,17,23,Female,Right,19,Training,2.566452400002163,0.05,true,tree,tree,occlusion,control,mask,partial viewing,few large,Training_Stimulus\fewlarge_partialViewing_control_tree9.png,mask_img/000000000626.png,training,p,p,205.80827560000762
V3,17,23,Female,Right,20,Training,3.67910129998927,0.1,true,bird,bird,occlusion,low,mask,partial viewing,many small,Training_Stimulus\manysmall_partialViewing_low_bird4.png,mask_img/000000006481.png,training,e,e,210.73034010000993
V3,17,23,Female,Right,21,Training,1.6525200000032783,0.1,true,building,building,occlusion,low,mask,partial viewing,many small,Training_Stimulus\manysmall_partialViewing_low_building24.png,mask_img/000000006489.png,training,u,u,213.52701200000593
V3,17,23,Female,Right,22,Training,1.3630642000061926,0.025,true,bus,bus,occlusion,control,mask,partial viewing,few large,Training_Stimulus\fewlarge_partialViewing_control_bus180.png,mask_img/000000000394.png,training,w,w,216.27714070001093
V3,17,23,Female,Right,23,Training,1.8447044000058668,0.1,true,cat,cat,occlusion,control,mask,partial viewing,few large,Training_Stimulus\fewlarge_partialViewing_control_cat432.png,mask_img/000000000438.png,training,o,o,219.4333922000078
V3,17,23,Female,Right,24,Training,1.3861103000090225,0.025,true,firehydrant,firehydrant,occlusion,high,mask,partial viewing,many small,Training_Stimulus\manysmall_partialViewing_high_firehydrant90.png,mask_img/000000006146.png,training,r,r,222.19906840000476
V3,17,23,Female,Right,25,Training,1.3954235999990487,0.025,true,firehydrant,firehydrant,occlusion,high,mask,partial viewing,few large,Training_Stimulus\fewlarge_partialViewing_high_firehydrant90.png,mask_img/000000001810.png,training,r,r,224.87229420000222
V3,17,23,Female,Right,26,Training,0.8504021999979159,0.05,true,firehydrant,firehydrant,occlusion,control,mask,partial viewing,few large,Training_Stimulus\fewlarge_partialViewing_control_firehydrant90.png,mask_img/000000000459.png,training,r,r,226.89781070000026
V3,17,23,Female,Right,1,Block 1,1.2807715999952052,0.1,true,person,person,occlusion,control,mask,partial viewing,few large,Stimulus\all_stim\occlusion\partialviewing\fewlarge\control\fewlarge_partialViewing_control_person9.png,mask_img/000000009809.png,experiment,q,q,234.7549471000093
V3,17,23,Female,Right,2,Block 1,1.2943152000079863,0.05,true,bus,bus,occlusion,high,mask,partial viewing,few large,Stimulus\all_stim\occlusion\partialviewing\fewlarge\high\fewlarge_partialViewing_high_bus1.png,mask_img/000000015645.png,experiment,w,w,236.9791661000054
V3,17,23,Female,Right,3,Block 1,2.2177931999904104,0.025,true,banana,banana,occlusion,control,mask,partial viewing,few large,Stimulus\all_stim\occlusion\partialviewing\fewlarge\control\fewlarge_partialViewing_control_banana8.png,mask_img/000000000690.png,experiment,i,i,240.0274528000009
V3,17,23,Female,Right,4,Block 1,1.4871963000041433,0.025,true,firehydrant,firehydrant,occlusion,control,mask,partial viewing,many small,Stimulus\all_stim\occlusion\partialviewing\manysmall\control\manysmall_partialViewing_control_firehydrant10.png,mask_img/000000039053.png,experiment,r,r,242.19523250000202
V3,17,23,Female,Right,5,Block 1,2.0349622999929124,0.05,false,tree,cat,occlusion,control,mask,partial viewing,few large,Stimulus\all_stim\occlusion\partialviewing\fewlarge\control\fewlarge_partialViewing_control_tree3.png,mask_img/000000010566.png,experiment,o,p,245.01077590000932
V3,17,23,Female,Right,6,Block 1,2.007327200000873,0.025,false,banana,firehydrant,occlusion,high,mask,partial viewing,many small,Stimulus\all_stim\occlusion\partialviewing\manysmall\high\manysmall_partialViewing_high_banana8.png,mask_img/000000043291.png,experiment,r,i,247.8349431000097
V3,17,23,Female,Right,7,Block 1,1.698466300003929,0.1,false,firehydrant,banana,occlusion,high,mask,partial viewing,many small,Stimulus\all_stim\occlusion\partialviewing\manysmall\high\manysmall_partialViewing_high_firehydrant1.png,mask_img/000000049987.png,experiment,i,r,250.60320320000756
V3,17,23,Female,Right,8,Block 1,0.9321039000060409,0.05,true,person,person,occlusion,low,mask,partial viewing,many small,Stimulus\all_stim\occlusion\partialviewing\manysmall\low\manysmall_partialViewing_low_person9.png,mask_img/000000062427.png,experiment,q,q,252.60310480000044
V3,17,23,Female,Right,9,Block 1,1.4289700000081211,0.025,true,person,person,occlusion,low,mask,partial viewing,many small,Stimulus\all_stim\occlusion\partialviewing\manysmall\low\manysmall_partialViewing_low_person8.png,mask_img/000000062420.png,experiment,q,q,254.7967185000016
V3,17,23,Female,Right,10,Block 1,1.655290700000478,0.1,true,building,building,occlusion,control,mask,partial viewing,many small,Stimulus\all_stim\occlusion\partialviewing\manysmall\control\manysmall_partialViewing_control_building8.png,mask_img/000000036091.png,experiment,u,u,257.24285970001074
V3,17,23,Female,Right,11,Block 1,1.6480564999947092,0.1,true,bird,bird,occlusion,low,mask,partial viewing,many small,Stimulus\all_stim\occlusion\partialviewing\manysmall\low\manysmall_partialViewing_low_bird10.png,mask_img/000000055733.png,experiment,e,e,259.8188641000015
V3,17,23,Female,Right,12,Block 1,0.932894200013834,0.05,true,person,person,occlusion,control,mask,partial viewing,few large,Stimulus\all_stim\occlusion\partialviewing\fewlarge\control\fewlarge_partialViewing_control_person4.png,mask_img/000000009178.png,experiment,q,q,261.83495430000767
V3,17,23,Female,Right,13,Block 1,1.8193251000047894,0.1,true,cat,cat,occlusion,control,mask,partial viewing,few large,Stimulus\all_stim\occlusion\partialviewing\fewlarge\control\fewlarge_partialViewing_control_cat8.png,mask_img/000000007393.png,experiment,o,o,264.4432189000072
V3,17,23,Female,Right,14,Block 1,1.039370600003167,0.025,false,bird,person,occlusion,low,mask,partial viewing,many small,Stimulus\all_stim\occlusion\partialviewing\manysmall\low\manysmall_partialViewing_low_bird5.png,mask_img/000000055942.png,experiment,q,e,266.45862040000793
V3,17,23,Female,Right,15,Block 1,1.543058099996415,0.025,true,tree,tree,occlusion,low,mask,partial viewing,few large,Stimulus\all_stim\occlusion\partialviewing\fewlarge\low\fewlarge_partialViewing_low_tree6.png,mask_img/000000032720.png,experiment,p,p,268.77125309999974
V3,17,23,Female,Right,16,Block 1,1.6857062000053702,0.1,true,bird,bird,occlusion,low,mask,partial viewing,few large,Stimulus\all_stim\occlusion\partialviewing\fewlarge\low\fewlarge_partialViewing_low_bird3.png,mask_img/000000024157.png,experiment,e,e,271.17072320000443
V3,17,23,Female,Right,17,Block 1,1.4380563000013353,0.1,true,banana,banana,occlusion,low,mask,partial viewing,few large,Stimulus\all_stim\occlusion\partialviewing\fewlarge\low\fewlarge_partialViewing_low_banana4.png,mask_img/000000023015.png,experiment,i,i,273.52318730000115
V3,17,23,Female,Right,18,Block 1,1.322697799987509,0.025,true,tree,tree,occlusion,high,mask,partial viewing,few large,Stimulus\all_stim\occlusion\partialviewing\fewlarge\high\fewlarge_partialViewing_high_tree2.png,mask_img/000000021641.png,experiment,p,p,275.9307564000046
V3,17,23,Female,Right,19,Block 1,1.4354672000044957,0.05,true,bus,bus,occlusion,low,mask,partial viewing,few large,Stimulus\all_stim\occlusion\partialviewing\fewlarge\low\fewlarge_partialViewing_low_bus9.png,mask_img/000000027005.png,experiment,w,w,278.4349199999997
V3,17,23,Female,Right,20,Block 1,0.8204781999957049,0.025,true,person,person,occlusion,control,mask,partial viewing,many small,Stimulus\all_stim\occlusion\partialviewing\manysmall\control\manysmall_partialViewing_control_person10.png,mask_img/000000039778.png,experiment,q,q,279.9147071000043
V3,17,23,Female,Right,21,Block 1,2.3010094999917783,0.05,false,cat,tree,occlusion,low,mask,partial viewing,many small,Stimulus\all_stim\occlusion\partialviewing\manysmall\low\manysmall_partialViewing_low_cat2.png,mask_img/000000059201.png,experiment,p,o,283.3327013000089
V3,17,23,Female,Right,22,Block 1,1.452150699988124,0.1,true,banana,banana,occlusion,low,mask,partial viewing,few large,Stimulus\all_stim\occlusion\partialviewing\fewlarge\low\fewlarge_partialViewing_low_banana7.png,mask_img/000000023511.png,experiment,i,i,285.79475120001007
V3,17,23,Female,Right,23,Block 1,0.8156181999947876,0.025,true,banana,banana,occlusion,low,mask,partial viewing,few large,Stimulus\all_stim\occlusion\partialviewing\fewlarge\low\fewlarge_partialViewing_low_banana10.png,mask_img/000000022563.png,experiment,i,i,287.64267980000295
V3,17,23,Female,Right,24,Block 1,1.4466761000076076,0.1,true,bus,bus,occlusion,control,mask,partial viewing,many small,Stimulus\all_stim\occlusion\partialviewing\manysmall\control\manysmall_partialViewing_control_bus7.png,mask_img/000000037339.png,experiment,w,w,290.05899960000534
V3,17,23,Female,Right,25,Block 1,1.2224768000014592,0.05,false,building,bus,occlusion,low,mask,partial viewing,many small,Stimulus\all_stim\occlusion\partialviewing\manysmall\low\manysmall_partialViewing_low_building9.png,mask_img/000000058102.png,experiment,w,u,292.1467460999993
V3,17,23,Female,Right,26,Block 1,1.30928010000207,0.1,true,banana,banana,occlusion,control,mask,partial viewing,few large,Stimulus\all_stim\occlusion\partialviewing\fewlarge\control\fewlarge_partialViewing_control_banana9.png,mask_img/000000000731.png,experiment,i,i,294.2829337000003
V3,17,23,Female,Right,27,Block 1,1.5467192999931285,0.025,true,firehydrant,firehydrant,occlusion,control,mask,partial viewing,few large,Stimulus\all_stim\occlusion\partialviewing\fewlarge\control\fewlarge_partialViewing_control_firehydrant7.png,mask_img/000000008053.png,experiment,r,r,296.6586882999982
V3,17,23,Female,Right,28,Block 1,0.8377191000035964,0.05,true,firehydrant,firehydrant,occlusion,control,mask,partial viewing,few large,Stimulus\all_stim\occlusion\partialviewing\fewlarge\control\fewlarge_partialViewing_control_firehydrant6.png,mask_img/000000008025.png,experiment,r,r,298.1867525999987
V3,17,23,Female,Right,29,Block 1,1.0227943000063533,0.025,true,person,person,occlusion,control,mask,partial viewing,few large,Stimulus\all_stim\occlusion\partialviewing\fewlarge\control\fewlarge_partialViewing_control_person5.png,mask_img/000000009286.png,experiment,q,q,300.29088140001113
V3,17,23,Female,Right,30,Block 1,0.8766160000086529,0.025,false,cat,person,occlusion,high,mask,partial viewing,few large,Stimulus\all_stim\occlusion\partialviewing\fewlarge\high\fewlarge_partialViewing_high_cat7.png,mask_img/000000017580.png,experiment,q,o,302.22705430000497
V3,17,23,Female,Right,31,Block 1,1.8845563000068069,0.05,false,bus,building,occlusion,low,mask,partial viewing,many small,Stimulus\all_stim\occlusion\partialviewing\manysmall\low\manysmall_partialViewing_low_bus8.png,mask_img/000000058873.png,experiment,u,w,304.779194200004
V3,17,23,Female,Right,32,Block 1,0.8437787000002572,0.025,true,building,building,occlusion,low,mask,partial viewing,few large,Stimulus\all_stim\occlusion\partialviewing\fewlarge\low\fewlarge_partialViewing_low_building5.png,mask_img/000000025034.png,experiment,u,u,306.63518789999944
V3,17,23,Female,Right,33,Block 1,1.5431134999962524,0.1,true,cat,cat,occlusion,control,mask,partial viewing,many small,Stimulus\all_stim\occlusion\partialviewing\manysmall\control\manysmall_partialViewing_control_cat4.png,mask_img/000000038479.png,experiment,o,o,309.0197421000048
V3,17,23,Female,Right,34,Block 1,1.8651705999945989,0.1,true,firehydrant,firehydrant,occlusion,low,mask,partial viewing,few large,Stimulus\all_stim\occlusion\partialviewing\fewlarge\low\fewlarge_partialViewing_low_firehydrant5.png,mask_img/000000028698.png,experiment,r,r,311.8825263000035
V3,17,23,Female,Right,35,Block 1,0.9379838999884669,0.1,true,firehydrant,firehydrant,occlusion,control,mask,partial viewing,few large,Stimulus\all_stim\occlusion\partialviewing\fewlarge\control\fewlarge_partialViewing_control_firehydrant1.png,mask_img/000000007740.png,experiment,r,r,313.66643209999893
V3,17,23,Female,Right,36,Block 1,1.1693573000084143,0.05,true,tree,tree,occlusion,control,mask,partial viewing,many small,Stimulus\all_stim\occlusion\partialviewing\manysmall\control\manysmall_partialViewing_control_tree3.png,mask_img/000000041014.png,experiment,p,p,315.5548754000047
V3,17,23,Female,Right,37,Block 1,1.6105209999950603,0.1,true,building,building,occlusion,control,mask,partial viewing,few large,Stimulus\all_stim\occlusion\partialviewing\fewlarge\control\fewlarge_partialViewing_control_building4.png,mask_img/000000004239.png,experiment,u,u,318.11523700000544
V3,17,23,Female,Right,38,Block 1,1.167858700006036,0.05,false,cat,person,occlusion,low,mask,partial viewing,many small,Stimulus\all_stim\occlusion\partialviewing\manysmall\low\manysmall_partialViewing_low_cat9.png,mask_img/000000060387.png,experiment,q,o,320.282704000012
V3,17,23,Female,Right,39,Block 1,1.808502599989879,0.1,true,bus,bus,occlusion,high,mask,partial viewing,few large,Stimulus\all_stim\occlusion\partialviewing\fewlarge\high\fewlarge_partialViewing_high_bus9.png,mask_img/000000016764.png,experiment,w,w,322.8266061000031
V3,17,23,Female,Right,40,Block 1,1.6480385000031674,0.1,true,bird,bird,occlusion,high,mask,partial viewing,few large,Stimulus\all_stim\occlusion\partialviewing\fewlarge\high\fewlarge_partialViewing_high_bird7.png,mask_img/000000013949.png,experiment,e,e,325.37873019999824
V3,17,23,Female,Right,41,Block 1,1.7665399000106845,0.05,true,firehydrant,firehydrant,occlusion,high,mask,partial viewing,few large,Stimulus\all_stim\occlusion\partialviewing\fewlarge\high\fewlarge_partialViewing_high_firehydrant6.png,mask_img/000000019134.png,experiment,r,r,328.19484029999876
V3,17,23,Female,Right,42,Block 1,1.3906468000059249,0.1,true,tree,tree,occlusion,control,mask,partial viewing,many small,Stimulus\all_stim\occlusion\partialviewing\manysmall\control\manysmall_partialViewing_control_tree4.png,mask_img/000000041022.png,experiment,p,p,330.50691820000065
V3,17,23,Female,Right,43,Block 1,1.0253525999869453,0.05,true,tree,tree,occlusion,high,mask,partial viewing,many small,Stimulus\all_stim\occlusion\partialviewing\manysmall\high\manysmall_partialViewing_high_tree3.png,mask_img/000000052936.png,experiment,p,p,332.4588053000043
V3,17,23,Female,Right,44,Block 1,1.5264367000054335,0.05,true,firehydrant,firehydrant,occlusion,low,mask,partial viewing,few large,Stimulus\all_stim\occlusion\partialviewing\fewlarge\low\fewlarge_partialViewing_low_firehydrant6.png,mask_img/000000028842.png,experiment,r,r,334.64287350000814
V3,17,23,Female,Right,45,Block 1,1.7086211999994703,0.05,true,cat,cat,occlusion,control,mask,partial viewing,many small,Stimulus\all_stim\occlusion\partialviewing\manysmall\control\manysmall_partialViewing_control_cat9.png,mask_img/000000038862.png,experiment,o,o,337.1068934000068
V3,17,23,Female,Right,46,Block 1,0.8115775000042049,0.025,true,cat,cat,occlusion,high,mask,partial viewing,few large,Stimulus\all_stim\occlusion\partialviewing\fewlarge\high\fewlarge_partialViewing_high_cat2.png,mask_img/000000017352.png,experiment,o,o,338.9945754000073
V3,17,23,Female,Right,47,Block 1,1.3042749000014737,0.1,true,banana,banana,occlusion,control,mask,partial viewing,few large,Stimulus\all_stim\occlusion\partialviewing\fewlarge\control\fewlarge_partialViewing_control_banana1.png,mask_img/000000000042.png,experiment,i,i,341.37902490000124
V3,17,23,Female,Right,48,Block 1,1.349918699997943,0.1,true,bird,bird,occlusion,control,mask,partial viewing,few large,Stimulus\all_stim\occlusion\partialviewing\fewlarge\control\fewlarge_partialViewing_control_bird6.png,mask_img/000000002337.png,experiment,e,e,343.6746309000009
V3,17,23,Female,Right,49,Block 1,0.7403582999977516,0.1,false,person,bird,occlusion,high,mask,partial viewing,many small,Stimulus\all_stim\occlusion\partialviewing\manysmall\high\manysmall_partialViewing_high_person3.png,mask_img/000000051880.png,experiment,e,q,345.25063480000244
V3,17,23,Female,Right,50,Block 1,1.418769500000053,0.1,true,tree,tree,occlusion,low,mask,partial viewing,many small,Stimulus\all_stim\occlusion\partialviewing\manysmall\low\manysmall_partialViewing_low_tree2.png,mask_img/000000062875.png,experiment,p,p,347.68286230000376
V3,17,23,Female,Right,51,Block 1,1.5996509999968112,0.025,true,bus,bus,occlusion,control,mask,partial viewing,many small,Stimulus\all_stim\occlusion\partialviewing\manysmall\control\manysmall_partialViewing_control_bus1.png,mask_img/000000036255.png,experiment,w,w,349.9386935000075
V3,17,23,Female,Right,52,Block 1,0.999109700002009,0.1,true,bus,bus,occlusion,control,mask,partial viewing,many small,Stimulus\all_stim\occlusion\partialviewing\manysmall\control\manysmall_partialViewing_control_bus3.png,mask_img/000000036765.png,experiment,w,w,351.83489830000326
V3,17,23,Female,Right,53,Block 1,1.222378899998148,0.05,true,banana,banana,occlusion,low,mask,partial viewing,few large,Stimulus\all_stim\occlusion\partialviewing\fewlarge\low\fewlarge_partialViewing_low_banana3.png,mask_img/000000023004.png,experiment,i,i,354.0108667000022
V3,17,23,Female,Right,54,Block 1,1.4908952999976464,0.1,true,cat,cat,occlusion,low,mask,partial viewing,many small,Stimulus\all_stim\occlusion\partialviewing\manysmall\low\manysmall_partialViewing_low_cat4.png,mask_img/000000059483.png,experiment,o,o,356.4988138000044
V3,17,23,Female,Right,55,Block 1,1.3024764000001596,0.025,true,banana,banana,occlusion,low,mask,partial viewing,few large,Stimulus\all_stim\occlusion\partialviewing\fewlarge\low\fewlarge_partialViewing_low_banana4.png,mask_img/000000023015.png,experiment,i,i,358.52298720000545
V3,17,23,Female,Right,56,Block 1,0.8945176000124775,0.1,true,banana,banana,occlusion,low,mask,partial viewing,many small,Stimulus\all_stim\occlusion\partialviewing\manysmall\low\manysmall_partialViewing_low_banana1.png,mask_img/000000054532.png,experiment,i,i,360.4346419000067
V3,17,23,Female,Right,57,Block 1,0.5825178999948548,0.025,true,banana,banana,occlusion,high,mask,partial viewing,many small,Stimulus\all_stim\occlusion\partialviewing\manysmall\high\manysmall_partialViewing_high_banana10.png,mask_img/000000042196.png,experiment,i,i,362.10678450000705
V3,17,23,Female,Right,58,Block 1,1.1996502999973018,0.025,true,bus,bus,occlusion,high,mask,partial viewing,many small,Stimulus\all_stim\occlusion\partialviewing\manysmall\high\manysmall_partialViewing_high_bus1.png,mask_img/000000046676.png,experiment,w,w,364.4585614000098
V3,17,23,Female,Right,59,Block 1,1.348777200008044,0.025,true,bird,bird,occlusion,low,mask,partial viewing,few large,Stimulus\all_stim\occlusion\partialviewing\fewlarge\low\fewlarge_partialViewing_low_bird10.png,mask_img/000000023988.png,experiment,e,e,366.8908570000058
V3,17,23,Female,Right,60,Block 1,1.507410299993353,0.05,true,building,building,occlusion,low,mask,partial viewing,many small,Stimulus\all_stim\occlusion\partialviewing\manysmall\low\manysmall_partialViewing_low_building8.png,mask_img/000000058073.png,experiment,u,u,369.5393206000008
V3,17,23,Female,Right,61,Block 1,0.7309679000027245,0.05,true,person,person,occlusion,control,mask,partial viewing,many small,Stimulus\all_stim\occlusion\partialviewing\manysmall\control\manysmall_partialViewing_control_person9.png,mask_img/000000040771.png,experiment,q,q,371.1785665000061
V3,17,23,Female,Right,62,Block 1,1.4290089999994962,0.05,true,bird,bird,occlusion,control,mask,partial viewing,few large,Stimulus\all_stim\occlusion\partialviewing\fewlarge\control\fewlarge_partialViewing_control_bird8.png,mask_img/000000002822.png,experiment,e,e,373.4591292000114
V3,17,23,Female,Right,63,Block 1,1.3041565000021365,0.025,true,tree,tree,occlusion,low,mask,partial viewing,few large,Stimulus\all_stim\occlusion\partialviewing\fewlarge\low\fewlarge_partialViewing_low_tree1.png,mask_img/000000031053.png,experiment,p,p,375.69066950000706
V3,17,23,Female,Right,64,Block 1,1.1450827999942703,0.1,true,bus,bus,occlusion,low,mask,partial viewing,many small,Stimulus\all_stim\occlusion\partialviewing\manysmall\low\manysmall_partialViewing_low_bus1.png,mask_img/000000058232.png,experiment,w,w,377.68287760000385
V3,17,23,Female,Right,65,Block 1,2.0299343000078807,0.1,true,firehydrant,firehydrant,occlusion,control,mask,partial viewing,few large,Stimulus\all_stim\occlusion\partialviewing\fewlarge\control\fewlarge_partialViewing_control_firehydrant9.png,mask_img/000000008329.png,experiment,r,r,380.63487360000727
V3,17,23,Female,Right,66,Block 1,1.4795951999985846,0.05,true,banana,banana,occlusion,low,mask,partial viewing,few large,Stimulus\all_stim\occlusion\partialviewing\fewlarge\low\fewlarge_partialViewing_low_banana2.png,mask_img/000000022983.png,experiment,i,i,383.05064810000476
V3,17,23,Female,Right,67,Block 1,1.5634166000090772,0.025,true,building,building,occlusion,control,mask,partial viewing,many small,Stimulus\all_stim\occlusion\partialviewing\manysmall\control\manysmall_partialViewing_control_building9.png,mask_img/000000036226.png,experiment,u,u,385.6667337000108
V3,17,23,Female,Right,68,Block 1,1.1038377000077162,0.025,false,bird,person,occlusion,high,mask,partial viewing,many small,Stimulus\all_stim\occlusion\partialviewing\manysmall\high\manysmall_partialViewing_high_bird3.png,mask_img/000000044123.png,experiment,q,e,387.5385692999989
V3,17,23,Female,Right,69,Block 1,1.448017799993977,0.05,true,firehydrant,firehydrant,occlusion,low,mask,partial viewing,few large,Stimulus\all_stim\occlusion\partialviewing\fewlarge\low\fewlarge_partialViewing_low_firehydrant4.png,mask_img/000000028671.png,experiment,r,r,389.6588424000074
V3,17,23,Female,Right,70,Block 1,1.4710619999968912,0.05,true,bus,bus,occlusion,low,mask,partial viewing,many small,Stimulus\all_stim\occlusion\partialviewing\manysmall\low\manysmall_partialViewing_low_bus2.png,mask_img/000000058627.png,experiment,w,w,391.90658840000106
V3,17,23,Female,Right,71,Block 1,1.7301142999931471,0.025,true,banana,banana,occlusion,low,mask,partial viewing,few large,Stimulus\all_stim\occlusion\partialviewing\fewlarge\low\fewlarge_partialViewing_low_banana1.png,mask_img/000000022545.png,experiment,i,i,394.39500560000306
V3,17,23,Female,Right,72,Block 1,1.97593090000737,0.1,true,bird,bird,occlusion,high,mask,partial viewing,few large,Stimulus\all_stim\occlusion\partialviewing\fewlarge\high\fewlarge_partialViewing_high_bird8.png,mask_img/000000014168.png,experiment,e,e,397.42693610000424
V3,17,23,Female,Right,73,Block 1,1.831521400003112,0.05,true,bird,bird,occlusion,high,mask,partial viewing,many small,Stimulus\all_stim\occlusion\partialviewing\manysmall\high\manysmall_partialViewing_high_bird8.png,mask_img/000000044831.png,experiment,e,e,400.2508952000062
V3,17,23,Female,Right,74,Block 1,0.5859782000043197,0.05,true,person,person,occlusion,control,mask,partial viewing,few large,Stimulus\all_stim\occlusion\partialviewing\fewlarge\control\fewlarge_partialViewing_control_person3.png,mask_img/000000008920.png,experiment,q,q,401.78762200000347
V3,17,23,Female,Right,75,Block 1,0.9217435999889858,0.1,false,tree,cat,occlusion,control,mask,partial viewing,many small,Stimulus\all_stim\occlusion\partialviewing\manysmall\control\manysmall_partialViewing_control_tree7.png,mask_img/000000041434.png,experiment,o,p,403.7946442000102
V3,17,23,Female,Right,76,Block 1,0.529248999999254,0.025,false,person,tree,occlusion,high,mask,partial viewing,few large,Stimulus\all_stim\occlusion\partialviewing\fewlarge\high\fewlarge_partialViewing_high_person2.png,mask_img/000000019932.png,experiment,p,q,405.3388688000123
V3,17,23,Female,Right,77,Block 1,1.6028674999979557,0.025,true,banana,banana,occlusion,control,mask,partial viewing,many small,Stimulus\all_stim\occlusion\partialviewing\manysmall\control\manysmall_partialViewing_control_banana1.png,mask_img/000000033073.png,experiment,i,i,407.8185252000112
V3,17,23,Female,Right,78,Block 1,1.9227297000034014,0.025,true,building,building,occlusion,high,mask,partial viewing,many small,Stimulus\all_stim\occlusion\partialviewing\manysmall\high\manysmall_partialViewing_high_building9.png,mask_img/000000046345.png,experiment,u,u,410.81091970000125
V3,17,23,Female,Right,79,Block 1,1.8004281999892555,0.05,false,bus,building,occlusion,low,mask,partial viewing,few large,Stimulus\all_stim\occlusion\partialviewing\fewlarge\low\fewlarge_partialViewing_low_bus3.png,mask_img/000000025997.png,experiment,u,w,413.7470968000125
V3,17,23,Female,Right,80,Block 1,1.461859800008824,0.025,true,cat,cat,occlusion,low,mask,partial viewing,few large,Stimulus\all_stim\occlusion\partialviewing\fewlarge\low\fewlarge_partialViewing_low_cat7.png,mask_img/000000027890.png,experiment,o,o,416.33071370000835
V3,17,23,Female,Right,81,Block 1,1.7618560999981128,0.05,true,building,building,occlusion,control,mask,partial viewing,many small,Stimulus\all_stim\occlusion\partialviewing\manysmall\control\manysmall_partialViewing_control_building2.png,mask_img/000000035864.png,experiment,u,u,419.17856140001095
V3,17,23,Female,Right,82,Block 1,1.098325200000545,0.05,true,banana,banana,occlusion,control,mask,partial viewing,many small,Stimulus\all_stim\occlusion\partialviewing\manysmall\control\manysmall_partialViewing_control_banana4.png,mask_img/000000033667.png,experiment,i,i,421.2188576000044
V3,17,23,Female,Right,83,Block 1,1.3822721000033198,0.05,true,cat,cat,occlusion,low,mask,partial viewing,few large,Stimulus\all_stim\occlusion\partialviewing\fewlarge\low\fewlarge_partialViewing_low_cat3.png,mask_img/000000027556.png,experiment,o,o,423.6109651000006
V3,17,23,Female,Right,84,Block 1,1.7860944000130985,0.025,true,building,building,occlusion,control,mask,partial viewing,few large,Stimulus\all_stim\occlusion\partialviewing\fewlarge\control\fewlarge_partialViewing_control_building10.png,mask_img/000000003225.png,experiment,u,u,426.5469798999984
V3,17,23,Female,Right,85,Block 1,1.1464171999978134,0.05,false,bus,building,occlusion,high,mask,partial viewing,many small,Stimulus\all_stim\occlusion\partialviewing\manysmall\high\manysmall_partialViewing_high_bus8.png,mask_img/000000048169.png,experiment,u,w,428.59483480000927
V3,17,23,Female,Right,86,Block 1,1.863742599991383,0.05,true,bird,bird,occlusion,low,mask,partial viewing,many small,Stimulus\all_stim\occlusion\partialviewing\manysmall\low\manysmall_partialViewing_low_bird10.png,mask_img/000000055733.png,experiment,e,e,431.2027225000056
V3,17,23,Female,Right,87,Block 1,1.0708240999956615,0.025,true,bird,bird,occlusion,control,mask,partial viewing,many small,Stimulus\all_stim\occlusion\partialviewing\manysmall\control\manysmall_partialViewing_control_bird6.png,mask_img/000000034993.png,experiment,e,e,433.1946159000072
V3,17,23,Female,Right,88,Block 1,1.3939304999948945,0.025,true,banana,banana,occlusion,high,mask,partial viewing,few large,Stimulus\all_stim\occlusion\partialviewing\fewlarge\high\fewlarge_partialViewing_high_banana1.png,mask_img/000000011754.png,experiment,i,i,435.65860000000976
V3,17,23,Female,Right,89,Block 1,0.9809378999925684,0.05,true,person,person,occlusion,control,mask,partial viewing,many small,Stimulus\all_stim\occlusion\partialviewing\manysmall\control\manysmall_partialViewing_control_person6.png,mask_img/000000040325.png,experiment,q,q,437.58872830000473
V3,17,23,Female,Right,90,Block 1,1.238459000000148,0.05,true,tree,tree,occlusion,control,mask,partial viewing,many small,Stimulus\all_stim\occlusion\partialviewing\manysmall\control\manysmall_partialViewing_control_tree10.png,mask_img/000000040948.png,experiment,p,p,439.93863930000225
V3,17,23,Female,Right,91,Block 1,2.1062820000079228,0.025,true,building,building,occlusion,high,mask,partial viewing,few large,Stimulus\all_stim\occlusion\partialviewing\fewlarge\high\fewlarge_partialViewing_high_building6.png,mask_img/000000014774.png,experiment,u,u,442.9467474000121
V3,17,23,Female,Right,92,Block 1,0.7227624999941327,0.025,true,person,person,occlusion,low,mask,partial viewing,few large,Stimulus\all_stim\occlusion\partialviewing\fewlarge\low\fewlarge_partialViewing_low_person5.png,mask_img/000000029964.png,experiment,q,q,444.33053810001
V3,17,23,Female,Right,93,Block 1,1.6437214000034146,0.1,true,bus,bus,occlusion,low,mask,partial viewing,few large,Stimulus\all_stim\occlusion\partialviewing\fewlarge\low\fewlarge_partialViewing_low_bus8.png,mask_img/000000026782.png,experiment,w,w,446.8907891000126
V3,17,23,Female,Right,94,Block 1,1.5302258000010625,0.1,true,tree,tree,occlusion,high,mask,partial viewing,few large,Stimulus\all_stim\occlusion\partialviewing\fewlarge\high\fewlarge_partialViewing_high_tree7.png,mask_img/000000022256.png,experiment,p,p,449.43660230000387
V3,17,23,Female,Right,95,Block 1,1.5787358999950811,0.1,true,building,building,occlusion,low,mask,partial viewing,few large,Stimulus\all_stim\occlusion\partialviewing\fewlarge\low\fewlarge_partialViewing_low_building9.png,mask_img/000000025516.png,experiment,u,u,451.9147754000005
V3,17,23,Female,Right,96,Block 1,2.002802699993481,0.05,true,tree,tree,occlusion,control,mask,partial viewing,few large,Stimulus\all_stim\occlusion\partialviewing\fewlarge\control\fewlarge_partialViewing_control_tree4.png,mask_img/000000010969.png,experiment,p,p,454.6268238000048
V3,17,23,Female,Right,97,Block 1,0.7805432999884943,0.1,true,person,person,occlusion,high,mask,partial viewing,few large,Stimulus\all_stim\occlusion\partialviewing\fewlarge\high\fewlarge_partialViewing_high_person4.png,mask_img/000000020202.png,experiment,q,q,456.41873230000783
V3,17,23,Female,Right,98,Block 1,1.6240192999975989,0.025,false,bird,person,occlusion,high,mask,partial viewing,few large,Stimulus\all_stim\occlusion\partialviewing\fewlarge\high\fewlarge_partialViewing_high_bird3.png,mask_img/000000013455.png,experiment,q,e,458.7146042000095
V3,17,23,Female,Right,99,Block 1,0.6153557000070577,0.05,true,person,person,occlusion,low,mask,partial viewing,many small,Stimulus\all_stim\occlusion\partialviewing\manysmall\low\manysmall_partialViewing_low_person10.png,mask_img/000000061838.png,experiment,q,q,460.3944792000111
V3,17,23,Female,Right,100,Block 1,1.7928892000054475,0.025,true,building,building,occlusion,low,mask,partial viewing,few large,Stimulus\all_stim\occlusion\partialviewing\fewlarge\low\fewlarge_partialViewing_low_building6.png,mask_img/000000025143.png,experiment,u,u,463.0345923999994
V3,17,23,Female,Right,101,Block 1,3.5514867000019876,0.05,false,cat,building,occlusion,low,mask,partial viewing,many small,Stimulus\all_stim\occlusion\partialviewing\manysmall\low\manysmall_partialViewing_low_cat8.png,mask_img/000000060245.png,experiment,u,o,467.292346000002
V3,17,23,Female,Right,102,Block 1,0.5573486000066623,0.1,true,building,building,occlusion,low,mask,partial viewing,few large,Stimulus\all_stim\occlusion\partialviewing\fewlarge\low\fewlarge_partialViewing_low_building2.png,mask_img/000000024702.png,experiment,u,u,468.5305679000012
V3,17,23,Female,Right,103,Block 1,1.8597649000003003,0.05,true,person,person,occlusion,control,mask,partial viewing,few large,Stimulus\all_stim\occlusion\partialviewing\fewlarge\control\fewlarge_partialViewing_control_person5.png,mask_img/000000009286.png,experiment,q,q,471.04281530001026
V3,17,23,Female,Right,104,Block 1,0.7850957000046037,0.025,true,building,building,occlusion,low,mask,partial viewing,few large,Stimulus\all_stim\occlusion\partialviewing\fewlarge\low\fewlarge_partialViewing_low_building7.png,mask_img/000000025192.png,experiment,u,u,472.7386533000099
V3,17,23,Female,Right,105,Block 1,0.6758551999955671,0.1,false,cat,person,occlusion,high,mask,partial viewing,many small,Stimulus\all_stim\occlusion\partialviewing\manysmall\high\manysmall_partialViewing_high_cat4.png,mask_img/000000049331.png,experiment,q,o,474.3863760000095
V3,17,23,Female,Right,106,Block 1,1.5078770999971312,0.05,true,building,building,occlusion,high,mask,partial viewing,many small,Stimulus\all_stim\occlusion\partialviewing\manysmall\high\manysmall_partialViewing_high_building1.png,mask_img/000000044950.png,experiment,u,u,476.6267469000013
V3,17,23,Female,Right,107,Block 1,1.1702813000010792,0.05,true,banana,banana,occlusion,control,mask,partial viewing,few large,Stimulus\all_stim\occlusion\partialviewing\fewlarge\control\fewlarge_partialViewing_control_banana7.png,mask_img/000000000626.png,experiment,i,i,478.6185625000071
V3,17,23,Female,Right,108,Block 1,0.6056687999953283,0.025,false,bird,banana,occlusion,high,mask,partial viewing,few large,Stimulus\all_stim\occlusion\partialviewing\fewlarge\high\fewlarge_partialViewing_high_bird1.png,mask_img/000000013061.png,experiment,i,e,480.2345764000056
V3,17,23,Female,Right,109,Block 1,1.577934600005392,0.025,true,cat,cat,occlusion,control,mask,partial viewing,many small,Stimulus\all_stim\occlusion\partialviewing\manysmall\control\manysmall_partialViewing_control_cat1.png,mask_img/000000038177.png,experiment,o,o,482.77082840001094
V3,17,23,Female,Right,110,Block 1,1.9150476999930106,0.025,false,banana,bus,occlusion,high,mask,partial viewing,few large,Stimulus\all_stim\occlusion\partialviewing\fewlarge\high\fewlarge_partialViewing_high_banana3.png,mask_img/000000012313.png,experiment,w,i,485.78065400000196
V3,17,23,Female,Right,111,Block 1,0.7124815999995917,0.025,true,cat,cat,occlusion,control,mask,partial viewing,few large,Stimulus\all_stim\occlusion\partialviewing\fewlarge\control\fewlarge_partialViewing_control_cat5.png,mask_img/000000006870.png,experiment,o,o,487.17079060000833
V3,17,23,Female,Right,112,Block 1,1.1404462000064086,0.05,true,firehydrant,firehydrant,occlusion,low,mask,partial viewing,few large,Stimulus\all_stim\occlusion\partialviewing\fewlarge\low\fewlarge_partialViewing_low_firehydrant8.png,mask_img/000000028988.png,experiment,r,r,489.44272840001213
V3,17,23,Female,Right,113,Block 1,2.337069100001827,0.1,true,tree,tree,occlusion,control,mask,partial viewing,few large,Stimulus\all_stim\occlusion\partialviewing\fewlarge\control\fewlarge_partialViewing_control_tree4.png,mask_img/000000010969.png,experiment,p,p,492.87475950000226
V3,17,23,Female,Right,114,Block 1,1.5857723999943119,0.1,false,person,bird,occlusion,high,mask,partial viewing,many small,Stimulus\all_stim\occlusion\partialviewing\manysmall\high\manysmall_partialViewing_high_person1.png,mask_img/000000051310.png,experiment,e,q,495.2907414000074
V3,17,23,Female,Right,115,Block 1,0.5865543999971123,0.025,true,person,person,occlusion,control,mask,partial viewing,many small,Stimulus\all_stim\occlusion\partialviewing\manysmall\control\manysmall_partialViewing_control_person2.png,mask_img/000000039971.png,experiment,q,q,496.82664090000617
V3,17,23,Female,Right,116,Block 1,1.6717405999952462,0.1,true,tree,tree,occlusion,low,mask,partial viewing,many small,Stimulus\all_stim\occlusion\partialviewing\manysmall\low\manysmall_partialViewing_low_tree9.png,mask_img/000000063867.png,experiment,p,p,499.41141260000586
V3,17,23,Female,Right,117,Block 1,0.8758140999998432,0.025,true,bus,bus,occlusion,control,mask,partial viewing,few large,Stimulus\all_stim\occlusion\partialviewing\fewlarge\control\fewlarge_partialViewing_control_bus4.png,mask_img/000000005574.png,experiment,w,w,501.0031423000037
V3,17,23,Female,Right,118,Block 1,1.133737200012547,0.05,true,building,building,occlusion,low,mask,partial viewing,many small,Stimulus\all_stim\occlusion\partialviewing\manysmall\low\manysmall_partialViewing_low_building1.png,mask_img/000000056716.png,experiment,u,u,502.89879810001
V3,17,23,Female,Right,119,Block 1,0.9756658999976935,0.1,true,banana,banana,occlusion,control,mask,partial viewing,many small,Stimulus\all_stim\occlusion\partialviewing\manysmall\control\manysmall_partialViewing_control_banana10.png,mask_img/000000033074.png,experiment,i,i,504.5467342000047
V3,17,23,Female,Right,120,Block 1,0.9690426000015577,0.1,true,banana,banana,occlusion,high,mask,partial viewing,few large,Stimulus\all_stim\occlusion\partialviewing\fewlarge\high\fewlarge_partialViewing_high_banana6.png,mask_img/000000012548.png,experiment,i,i,506.5550055000058
V3,17,23,Female,Right,121,Block 1,1.2074660999933258,0.1,true,tree,tree,occlusion,control,mask,partial viewing,few large,Stimulus\all_stim\occlusion\partialviewing\fewlarge\control\fewlarge_partialViewing_control_tree6.png,mask_img/000000011328.png,experiment,p,p,508.5705317000102
V3,17,23,Female,Right,122,Block 1,1.1385244999983115,0.1,true,tree,tree,occlusion,control,mask,partial viewing,few large,Stimulus\all_stim\occlusion\partialviewing\fewlarge\control\fewlarge_partialViewing_control_tree3.png,mask_img/000000010566.png,experiment,p,p,510.4906634000072
V3,17,23,Female,Right,123,Block 1,1.2360891999996966,0.05,true,building,building,occlusion,high,mask,partial viewing,few large,Stimulus\all_stim\occlusion\partialviewing\fewlarge\high\fewlarge_partialViewing_high_building2.png,mask_img/000000014472.png,experiment,u,u,512.6504509000079
V3,17,23,Female,Right,124,Block 1,1.0421848999976646,0.025,false,cat,building,occlusion,high,mask,partial viewing,many small,Stimulus\all_stim\occlusion\partialviewing\manysmall\high\manysmall_partialViewing_high_cat7.png,mask_img/000000049602.png,experiment,u,o,514.4186886000098
V3,17,23,Female,Right,125,Block 1,1.3859678000007989,0.05,true,banana,banana,occlusion,control,mask,partial viewing,many small,Stimulus\all_stim\occlusion\partialviewing\manysmall\control\manysmall_partialViewing_control_banana8.png,mask_img/000000033904.png,experiment,i,i,516.4913298000029
V3,17,23,Female,Right,126,Block 1,1.5495125000015832,0.1,true,firehydrant,firehydrant,occlusion,high,mask,partial viewing,few large,Stimulus\all_stim\occlusion\partialviewing\fewlarge\high\fewlarge_partialViewing_high_firehydrant6.png,mask_img/000000019134.png,experiment,r,r,518.8507593000104
V3,17,23,Female,Right,127,Block 1,1.3357966999901691,0.025,true,banana,banana,occlusion,high,mask,partial viewing,many small,Stimulus\all_stim\occlusion\partialviewing\manysmall\high\manysmall_partialViewing_high_banana4.png,mask_img/000000042499.png,experiment,i,i,521.2505213000113
V3,17,23,Female,Right,128,Block 1,0.9342267000029096,0.1,true,cat,cat,occlusion,low,mask,partial viewing,many small,Stimulus\all_stim\occlusion\partialviewing\manysmall\low\manysmall_partialViewing_low_cat6.png,mask_img/000000059918.png,experiment,o,o,523.1784214000072
V3,17,23,Female,Right,129,Block 1,0.9531680999934906,0.05,false,building,bus,occlusion,control,mask,partial viewing,few large,Stimulus\all_stim\occlusion\partialviewing\fewlarge\control\fewlarge_partialViewing_control_building3.png,mask_img/000000003694.png,experiment,w,u,525.0424129000021
V3,17,23,Female,Right,130,Block 1,1.8192089999938617,0.025,true,tree,tree,occlusion,high,mask,partial viewing,few large,Stimulus\all_stim\occlusion\partialviewing\fewlarge\high\fewlarge_partialViewing_high_tree9.png,mask_img/000000022440.png,experiment,p,p,527.6027566000121
V3,17,23,Female,Right,131,Block 1,2.186104399996111,0.05,true,bird,bird,occlusion,control,mask,partial viewing,many small,Stimulus\all_stim\occlusion\partialviewing\manysmall\control\manysmall_partialViewing_control_bird2.png,mask_img/000000034455.png,experiment,e,e,530.8987965000124
V3,17,23,Female,Right,132,Block 1,3.614777700000559,0.025,false,firehydrant,building,occlusion,high,mask,partial viewing,many small,Stimulus\all_stim\occlusion\partialviewing\manysmall\high\manysmall_partialViewing_high_firehydrant4.png,mask_img/000000050412.png,experiment,u,r,535.3487370000075
V3,17,23,Female,Right,133,Block 1,1.1148570999939693,0.1,true,building,building,occlusion,low,mask,partial viewing,few large,Stimulus\all_stim\occlusion\partialviewing\fewlarge\low\fewlarge_partialViewing_low_building7.png,mask_img/000000025192.png,experiment,u,u,537.122485800006
V3,17,23,Female,Right,134,Block 1,0.6694382999994559,0.1,false,bus,building,occlusion,high,mask,partial viewing,few large,Stimulus\all_stim\occlusion\partialviewing\fewlarge\high\fewlarge_partialViewing_high_bus3.png,mask_img/000000015908.png,experiment,u,w,538.9387471000082
V3,17,23,Female,Right,135,Block 1,1.108189599995967,0.05,true,firehydrant,firehydrant,occlusion,control,mask,partial viewing,few large,Stimulus\all_stim\occlusion\partialviewing\fewlarge\control\fewlarge_partialViewing_control_firehydrant5.png,mask_img/000000008006.png,experiment,r,r,540.8506170000037
V3,17,23,Female,Right,136,Block 1,1.2915618999977596,0.1,true,cat,cat,occlusion,low,mask,partial viewing,many small,Stimulus\all_stim\occlusion\partialviewing\manysmall\low\manysmall_partialViewing_low_cat3.png,mask_img/000000059442.png,experiment,o,o,542.8188965000008
V3,17,23,Female,Right,137,Block 1,0.8470452000037767,0.05,true,bus,bus,occlusion,control,mask,partial viewing,many small,Stimulus\all_stim\occlusion\partialviewing\manysmall\control\manysmall_partialViewing_control_bus7.png,mask_img/000000037339.png,experiment,w,w,544.5144144000078
V3,17,23,Female,Right,138,Block 1,1.4690035000094213,0.025,false,tree,bus,occlusion,low,mask,partial viewing,many small,Stimulus\all_stim\occlusion\partialviewing\manysmall\low\manysmall_partialViewing_low_tree8.png,mask_img/000000063804.png,experiment,w,p,546.7467077000038
V3,17,23,Female,Right,139,Block 1,0.5848821000108728,0.1,true,person,person,occlusion,low,mask,partial viewing,few large,Stimulus\all_stim\occlusion\partialviewing\fewlarge\low\fewlarge_partialViewing_low_person6.png,mask_img/000000030267.png,experiment,q,q,548.3760800000018
V3,17,23,Female,Right,140,Block 1,1.3471328000014182,0.05,true,tree,tree,occlusion,control,mask,partial viewing,few large,Stimulus\all_stim\occlusion\partialviewing\fewlarge\control\fewlarge_partialViewing_control_tree2.png,mask_img/000000010560.png,experiment,p,p,550.4748651000118
V3,17,23,Female,Right,141,Block 1,0.7980124000023352,0.1,true,bus,bus,occlusion,control,mask,partial viewing,many small,Stimulus\all_stim\occlusion\partialviewing\manysmall\control\manysmall_partialViewing_control_bus9.png,mask_img/000000037864.png,experiment,w,w,551.9544462000049
V3,17,23,Female,Right,142,Block 1,0.7074170000123559,0.1,true,person,person,occlusion,high,mask,partial viewing,many small,Stimulus\all_stim\occlusion\partialviewing\manysmall\high\manysmall_partialViewing_high_person4.png,mask_img/000000052087.png,experiment,q,q,553.4104537000094
V3,17,23,Female,Right,143,Block 1,0.5020328999962658,0.1,true,person,person,occlusion,low,mask,partial viewing,many small,Stimulus\all_stim\occlusion\partialviewing\manysmall\low\manysmall_partialViewing_low_person3.png,mask_img/000000062128.png,experiment,q,q,554.8122875000117
V3,17,23,Female,Right,144,Block 1,1.1785318000038387,0.05,false,bird,cat,occlusion,high,mask,partial viewing,many small,Stimulus\all_stim\occlusion\partialviewing\manysmall\high\manysmall_partialViewing_high_bird1.png,mask_img/000000043966.png,experiment,o,e,568.4347754000046
V3,17,23,Female,Right,145,Block 2,0.6819051999918884,0.025,true,tree,tree,occlusion,control,mask,partial viewing,few large,Stimulus\all_stim\occlusion\partialviewing\fewlarge\control\fewlarge_partialViewing_control_tree5.png,mask_img/000000010991.png,experiment,p,p,570.2185114000022
V3,17,23,Female,Right,146,Block 2,0.6768238999939058,0.025,true,tree,tree,occlusion,control,mask,partial viewing,few large,Stimulus\all_stim\occlusion\partialviewing\fewlarge\control\fewlarge_partialViewing_control_tree3.png,mask_img/000000010566.png,experiment,p,p,572.010732499999
V3,17,23,Female,Right,147,Block 2,0.9466372000024421,0.05,true,tree,tree,occlusion,high,mask,partial viewing,many small,Stimulus\all_stim\occlusion\partialviewing\manysmall\high\manysmall_partialViewing_high_tree5.png,mask_img/000000053410.png,experiment,p,p,573.8263657000061
V3,17,23,Female,Right,148,Block 2,1.686271200000192,0.05,true,building,building,occlusion,high,mask,partial viewing,few large,Stimulus\all_stim\occlusion\partialviewing\fewlarge\high\fewlarge_partialViewing_high_building5.png,mask_img/000000014759.png,experiment,u,u,576.4909277000115
V3,17,23,Female,Right,149,Block 2,1.1563523000077112,0.025,true,bus,bus,occlusion,low,mask,partial viewing,few large,Stimulus\all_stim\occlusion\partialviewing\fewlarge\low\fewlarge_partialViewing_low_bus8.png,mask_img/000000026782.png,experiment,w,w,578.5544278000016
V3,17,23,Female,Right,150,Block 2,1.767144700002973,0.025,true,building,building,occlusion,high,mask,partial viewing,many small,Stimulus\all_stim\occlusion\partialviewing\manysmall\high\manysmall_partialViewing_high_building7.png,mask_img/000000046171.png,experiment,u,u,581.2427051000122
V3,17,23,Female,Right,151,Block 2,0.7368639999913285,0.025,true,person,person,occlusion,low,mask,partial viewing,many small,Stimulus\all_stim\occlusion\partialviewing\manysmall\low\manysmall_partialViewing_low_person7.png,mask_img/000000062350.png,experiment,q,q,583.0105042000068
V3,17,23,Female,Right,152,Block 2,1.5248288000002503,0.1,true,bus,bus,occlusion,low,mask,partial viewing,many small,Stimulus\all_stim\occlusion\partialviewing\manysmall\low\manysmall_partialViewing_low_bus7.png,mask_img/000000058822.png,experiment,w,w,585.6104892000003
V3,17,23,Female,Right,153,Block 2,0.6913147000013851,0.025,false,bird,person,occlusion,low,mask,partial viewing,many small,Stimulus\all_stim\occlusion\partialviewing\manysmall\low\manysmall_partialViewing_low_bird2.png,mask_img/000000055737.png,experiment,q,e,586.9626656000037
V3,17,23,Female,Right,154,Block 2,1.3478604999982053,0.1,false,bird,cat,occlusion,low,mask,partial viewing,few large,Stimulus\all_stim\occlusion\partialviewing\fewlarge\low\fewlarge_partialViewing_low_bird7.png,mask_img/000000024403.png,experiment,o,e,589.4344362999982
V3,17,23,Female,Right,155,Block 2,1.7228209000022616,0.025,true,bus,bus,occlusion,high,mask,partial viewing,few large,Stimulus\all_stim\occlusion\partialviewing\fewlarge\high\fewlarge_partialViewing_high_bus1.png,mask_img/000000015645.png,experiment,w,w,592.0908040000068
V3,17,23,Female,Right,156,Block 2,1.4685679999965942,0.05,true,building,building,occlusion,control,mask,partial viewing,few large,Stimulus\all_stim\occlusion\partialviewing\fewlarge\control\fewlarge_partialViewing_control_building5.png,mask_img/000000004642.png,experiment,u,u,594.3387086000002
V3,17,23,Female,Right,157,Block 2,0.7574348999914946,0.025,true,person,person,occlusion,low,mask,partial viewing,few large,Stimulus\all_stim\occlusion\partialviewing\fewlarge\low\fewlarge_partialViewing_low_person10.png,mask_img/000000029128.png,experiment,q,q,595.9864323000074
V3,17,23,Female,Right,158,Block 2,1.509310399997048,0.05,true,cat,cat,occlusion,high,mask,partial viewing,few large,Stimulus\all_stim\occlusion\partialviewing\fewlarge\high\fewlarge_partialViewing_high_cat5.png,mask_img/000000017409.png,experiment,o,o,598.2748992000124
V3,17,23,Female,Right,159,Block 2,1.0766934999992372,0.05,true,person,person,occlusion,high,mask,partial viewing,many small,Stimulus\all_stim\occlusion\partialviewing\manysmall\high\manysmall_partialViewing_high_person6.png,mask_img/000000052426.png,experiment,q,q,600.1466527000011
V3,17,23,Female,Right,160,Block 2,0.7290476000052877,0.025,false,bird,person,occlusion,low,mask,partial viewing,many small,Stimulus\all_stim\occlusion\partialviewing\manysmall\low\manysmall_partialViewing_low_bird8.png,mask_img/000000056137.png,experiment,q,e,601.7463968000084
V3,17,23,Female,Right,161,Block 2,1.7479659999953583,0.025,true,building,building,occlusion,control,mask,partial viewing,many small,Stimulus\all_stim\occlusion\partialviewing\manysmall\control\manysmall_partialViewing_control_building5.png,mask_img/000000036004.png,experiment,u,u,604.298627600001
V3,17,23,Female,Right,162,Block 2,1.393650300000445,0.025,true,cat,cat,occlusion,low,mask,partial viewing,few large,Stimulus\all_stim\occlusion\partialviewing\fewlarge\low\fewlarge_partialViewing_low_cat10.png,mask_img/000000027319.png,experiment,o,o,606.3945921999984
V3,17,23,Female,Right,163,Block 2,1.6441123000113294,0.1,true,building,building,occlusion,high,mask,partial viewing,few large,Stimulus\all_stim\occlusion\partialviewing\fewlarge\high\fewlarge_partialViewing_high_building4.png,mask_img/000000014592.png,experiment,u,u,608.7709783000028
V3,17,23,Female,Right,164,Block 2,0.9289417999971192,0.05,true,cat,cat,occlusion,high,mask,partial viewing,few large,Stimulus\all_stim\occlusion\partialviewing\fewlarge\high\fewlarge_partialViewing_high_cat9.png,mask_img/000000017858.png,experiment,o,o,610.7708003000007
V3,17,23,Female,Right,165,Block 2,1.5844868999993196,0.05,true,bus,bus,occlusion,control,mask,partial viewing,many small,Stimulus\all_stim\occlusion\partialviewing\manysmall\control\manysmall_partialViewing_control_bus10.png,mask_img/000000036482.png,experiment,w,w,613.2346978999994
V3,17,23,Female,Right,166,Block 2,0.683866899998975,0.1,true,cat,cat,occlusion,low,mask,partial viewing,many small,Stimulus\all_stim\occlusion\partialviewing\manysmall\low\manysmall_partialViewing_low_cat5.png,mask_img/000000059660.png,experiment,o,o,614.6667526000092
V3,17,23,Female,Right,167,Block 2,0.4799217999971006,0.1,true,cat,cat,occlusion,control,mask,partial viewing,many small,Stimulus\all_stim\occlusion\partialviewing\manysmall\control\manysmall_partialViewing_control_cat1.png,mask_img/000000038177.png,experiment,o,o,615.9675811000052
V3,17,23,Female,Right,168,Block 2,1.6013968999905046,0.05,true,building,building,occlusion,high,mask,partial viewing,many small,Stimulus\all_stim\occlusion\partialviewing\manysmall\high\manysmall_partialViewing_high_building9.png,mask_img/000000046345.png,experiment,u,u,618.6263232000056
V3,17,23,Female,Right,169,Block 2,0.8985474999935832,0.025,true,cat,cat,occlusion,high,mask,partial viewing,many small,Stimulus\all_stim\occlusion\partialviewing\manysmall\high\manysmall_partialViewing_high_cat1.png,mask_img/000000048664.png,experiment,o,o,620.1863825000037
V3,17,23,Female,Right,170,Block 2,1.0040291999903275,0.1,true,tree,tree,occlusion,low,mask,partial viewing,few large,Stimulus\all_stim\occlusion\partialviewing\fewlarge\low\fewlarge_partialViewing_low_tree3.png,mask_img/000000031717.png,experiment,p,p,622.154477700009
V3,17,23,Female,Right,171,Block 2,1.0367619000026025,0.05,true,banana,banana,occlusion,high,mask,partial viewing,many small,Stimulus\all_stim\occlusion\partialviewing\manysmall\high\manysmall_partialViewing_high_banana2.png,mask_img/000000042408.png,experiment,i,i,624.2363933000015
V3,17,23,Female,Right,172,Block 2,0.6673840000003111,0.1,true,person,person,occlusion,high,mask,partial viewing,few large,Stimulus\all_stim\occlusion\partialviewing\fewlarge\high\fewlarge_partialViewing_high_person1.png,mask_img/000000019759.png,experiment,q,q,625.7543536000012
V3,17,23,Female,Right,173,Block 2,1.570026199988206,0.1,true,banana,banana,occlusion,low,mask,partial viewing,many small,Stimulus\all_stim\occlusion\partialviewing\manysmall\low\manysmall_partialViewing_low_banana2.png,mask_img/000000054759.png,experiment,i,i,628.4587866000074
V3,17,23,Female,Right,174,Block 2,2.2037926000048174,0.1,true,tree,tree,occlusion,control,mask,partial viewing,few large,Stimulus\all_stim\occlusion\partialviewing\fewlarge\control\fewlarge_partialViewing_control_tree8.png,mask_img/000000011544.png,experiment,p,p,631.7624540000106
V3,17,23,Female,Right,175,Block 2,1.2861797999939881,0.1,true,bus,bus,occlusion,low,mask,partial viewing,many small,Stimulus\all_stim\occlusion\partialviewing\manysmall\low\manysmall_partialViewing_low_bus4.png,mask_img/000000058701.png,experiment,w,w,633.7624491000024
V3,17,23,Female,Right,176,Block 2,1.0908928999997443,0.025,false,bird,cat,occlusion,low,mask,partial viewing,many small,Stimulus\all_stim\occlusion\partialviewing\manysmall\low\manysmall_partialViewing_low_bird1.png,mask_img/000000055694.png,experiment,o,e,635.9164345000027
V3,17,23,Female,Right,177,Block 2,1.874781200007419,0.025,false,building,bus,occlusion,low,mask,partial viewing,many small,Stimulus\all_stim\occlusion\partialviewing\manysmall\low\manysmall_partialViewing_low_building2.png,mask_img/000000057551.png,experiment,w,u,638.5144080000027
V3,17,23,Female,Right,178,Block 2,1.6730448000016622,0.1,false,bird,cat,occlusion,high,mask,partial viewing,many small,Stimulus\all_stim\occlusion\partialviewing\manysmall\high\manysmall_partialViewing_high_bird1.png,mask_img/000000043966.png,experiment,o,e,640.9227159000002
V3,17,23,Female,Right,179,Block 2,1.555269500007853,0.1,true,banana,banana,occlusion,high,mask,partial viewing,many small,Stimulus\all_stim\occlusion\partialviewing\manysmall\high\manysmall_partialViewing_high_banana5.png,mask_img/000000042541.png,experiment,i,i,643.5551154999994
V3,17,23,Female,Right,180,Block 2,1.070514600010938,0.1,false,building,bus,occlusion,control,mask,partial viewing,many small,Stimulus\all_stim\occlusion\partialviewing\manysmall\control\manysmall_partialViewing_control_building9.png,mask_img/000000036226.png,experiment,w,u,645.3463790000096
V3,17,23,Female,Right,181,Block 2,0.4996247999952175,0.05,false,building,bus,occlusion,control,mask,partial viewing,many small,Stimulus\all_stim\occlusion\partialviewing\manysmall\control\manysmall_partialViewing_control_building9.png,mask_img/000000036226.png,experiment,w,u,646.761663199999
V3,17,23,Female,Right,182,Block 2,0.5292793000116944,0.05,true,person,person,occlusion,control,mask,partial viewing,few large,Stimulus\all_stim\occlusion\partialviewing\fewlarge\control\fewlarge_partialViewing_control_person10.png,mask_img/000000008469.png,experiment,q,q,648.2946525000007
V3,17,23,Female,Right,183,Block 2,0.8513623000035295,0.025,true,banana,banana,occlusion,control,mask,partial viewing,few large,Stimulus\all_stim\occlusion\partialviewing\fewlarge\control\fewlarge_partialViewing_control_banana6.png,mask_img/000000000595.png,experiment,i,i,649.8109267000109
V3,17,23,Female,Right,184,Block 2,0.531510500004515,0.025,true,banana,banana,occlusion,control,mask,partial viewing,few large,Stimulus\all_stim\occlusion\partialviewing\fewlarge\control\fewlarge_partialViewing_control_banana9.png,mask_img/000000000731.png,experiment,i,i,651.4469616999995
V3,17,23,Female,Right,185,Block 2,0.6641668000083882,0.025,false,building,bus,occlusion,low,mask,partial viewing,many small,Stimulus\all_stim\occlusion\partialviewing\manysmall\low\manysmall_partialViewing_low_building9.png,mask_img/000000058102.png,experiment,w,u,653.1464227000106
V3,17,23,Female,Right,186,Block 2,1.2043017000105465,0.05,true,bus,bus,occlusion,high,mask,partial viewing,few large,Stimulus\all_stim\occlusion\partialviewing\fewlarge\high\fewlarge_partialViewing_high_bus2.png,mask_img/000000015862.png,experiment,w,w,655.2186569000041
V3,17,23,Female,Right,187,Block 2,2.6046419000049355,0.025,false,bus,banana,occlusion,high,mask,partial viewing,many small,Stimulus\all_stim\occlusion\partialviewing\manysmall\high\manysmall_partialViewing_high_bus9.png,mask_img/000000048268.png,experiment,i,w,658.5224632000027
V3,17,23,Female,Right,188,Block 2,0.63025679999555,0.05,false,tree,cat,occlusion,low,mask,partial viewing,few large,Stimulus\all_stim\occlusion\partialviewing\fewlarge\low\fewlarge_partialViewing_low_tree2.png,mask_img/000000031601.png,experiment,o,p,660.0985733000125
V3,17,23,Female,Right,189,Block 2,1.4471463000081712,0.1,true,banana,banana,occlusion,high,mask,partial viewing,few large,Stimulus\all_stim\occlusion\partialviewing\fewlarge\high\fewlarge_partialViewing_high_banana5.png,mask_img/000000012543.png,experiment,i,i,662.2364727000095
V3,17,23,Female,Right,190,Block 2,0.6541749000025447,0.05,true,banana,banana,occlusion,control,mask,partial viewing,few large,Stimulus\all_stim\occlusion\partialviewing\fewlarge\control\fewlarge_partialViewing_control_banana10.png,mask_img/000000000109.png,experiment,i,i,663.8666935000074
V3,17,23,Female,Right,191,Block 2,0.6129198999988148,0.025,true,person,person,occlusion,low,mask,partial viewing,few large,Stimulus\all_stim\occlusion\partialviewing\fewlarge\low\fewlarge_partialViewing_low_person3.png,mask_img/000000029506.png,experiment,q,q,665.242327400003
V3,17,23,Female,Right,192,Block 2,0.6946944999945117,0.1,true,banana,banana,occlusion,low,mask,partial viewing,few large,Stimulus\all_stim\occlusion\partialviewing\fewlarge\low\fewlarge_partialViewing_low_banana1.png,mask_img/000000022545.png,experiment,i,i,666.6263565000118
V3,17,23,Female,Right,193,Block 2,2.5154990999872098,0.05,true,bird,bird,occlusion,low,mask,partial viewing,few large,Stimulus\all_stim\occlusion\partialviewing\fewlarge\low\fewlarge_partialViewing_low_bird4.png,mask_img/000000024193.png,experiment,e,e,670.2606479000096
V3,17,23,Female,Right,194,Block 2,0.8343182999960845,0.05,true,banana,banana,occlusion,control,mask,partial viewing,few large,Stimulus\all_stim\occlusion\partialviewing\fewlarge\control\fewlarge_partialViewing_control_banana5.png,mask_img/000000000459.png,experiment,i,i,671.8904460000049
V3,17,23,Female,Right,195,Block 2,1.1300889999984065,0.1,false,person,cat,occlusion,high,mask,partial viewing,many small,Stimulus\all_stim\occlusion\partialviewing\manysmall\high\manysmall_partialViewing_high_person6.png,mask_img/000000052426.png,experiment,o,q,674.0827070000087
V3,17,23,Female,Right,196,Block 2,0.9962201000016648,0.025,true,bus,bus,occlusion,control,mask,partial viewing,few large,Stimulus\all_stim\occlusion\partialviewing\fewlarge\control\fewlarge_partialViewing_control_bus6.png,mask_img/000000005862.png,experiment,w,w,675.7783318000002
V3,17,23,Female,Right,197,Block 2,1.58277619999717,0.05,false,tree,cat,occlusion,low,mask,partial viewing,many small,Stimulus\all_stim\occlusion\partialviewing\manysmall\low\manysmall_partialViewing_low_tree3.png,mask_img/000000063147.png,experiment,o,p,678.0344470999989
V3,17,23,Female,Right,198,Block 2,1.4691569999995409,0.1,true,building,building,occlusion,high,mask,partial viewing,few large,Stimulus\all_stim\occlusion\partialviewing\fewlarge\high\fewlarge_partialViewing_high_building8.png,mask_img/000000015366.png,experiment,u,u,680.3705888000113
V3,17,23,Female,Right,199,Block 2,1.5134412000043085,0.025,true,firehydrant,firehydrant,occlusion,control,mask,partial viewing,many small,Stimulus\all_stim\occlusion\partialviewing\manysmall\control\manysmall_partialViewing_control_firehydrant9.png,mask_img/000000039643.png,experiment,r,r,682.9151580000034
V3,17,23,Female,Right,200,Block 2,1.3729239999956917,0.05,false,bird,cat,occlusion,high,mask,partial viewing,many small,Stimulus\all_stim\occlusion\partialviewing\manysmall\high\manysmall_partialViewing_high_bird5.png,mask_img/000000044437.png,experiment,o,e,685.3224910999998
V3,17,23,Female,Right,201,Block 2,1.654035899991868,0.1,true,building,building,occlusion,control,mask,partial viewing,few large,Stimulus\all_stim\occlusion\partialviewing\fewlarge\control\fewlarge_partialViewing_control_building9.png,mask_img/000000005131.png,experiment,u,u,687.6511740999995
V3,17,23,Female,Right,202,Block 2,0.8862574999948265,0.05,true,banana,banana,occlusion,low,mask,partial viewing,many small,Stimulus\all_stim\occlusion\partialviewing\manysmall\low\manysmall_partialViewing_low_banana5.png,mask_img/000000055388.png,experiment,i,i,689.5068051000126
V3,17,23,Female,Right,203,Block 2,0.6598967999889283,0.025,true,banana,banana,occlusion,high,mask,partial viewing,many small,Stimulus\all_stim\occlusion\partialviewing\manysmall\high\manysmall_partialViewing_high_banana2.png,mask_img/000000042408.png,experiment,i,i,691.0343184000085
V3,17,23,Female,Right,204,Block 2,0.6467178000020795,0.05,true,person,person,occlusion,control,mask,partial viewing,many small,Stimulus\all_stim\occlusion\partialviewing\manysmall\control\manysmall_partialViewing_control_person1.png,mask_img/000000039656.png,experiment,q,q,692.3863899999997
V3,17,23,Female,Right,205,Block 2,0.4143975000042701,0.05,true,person,person,occlusion,high,mask,partial viewing,few large,Stimulus\all_stim\occlusion\partialviewing\fewlarge\high\fewlarge_partialViewing_high_person1.png,mask_img/000000019759.png,experiment,q,q,693.5629029999982
V3,17,23,Female,Right,206,Block 2,0.92852389998734,0.1,true,tree,tree,occlusion,control,mask,partial viewing,few large,Stimulus\all_stim\occlusion\partialviewing\fewlarge\control\fewlarge_partialViewing_control_tree7.png,mask_img/000000011504.png,experiment,p,p,695.3791908999992
V3,17,23,Female,Right,207,Block 2,2.00811419999809,0.05,true,bird,bird,occlusion,control,mask,partial viewing,few large,Stimulus\all_stim\occlusion\partialviewing\fewlarge\control\fewlarge_partialViewing_control_bird6.png,mask_img/000000002337.png,experiment,e,e,698.1786328000017
V3,17,23,Female,Right,208,Block 2,0.7402216000045883,0.1,true,person,person,occlusion,high,mask,partial viewing,few large,Stimulus\all_stim\occlusion\partialviewing\fewlarge\high\fewlarge_partialViewing_high_person7.png,mask_img/000000020421.png,experiment,q,q,700.0346227000118
V3,17,23,Female,Right,209,Block 2,1.1134748999902513,0.05,true,person,person,occlusion,low,mask,partial viewing,many small,Stimulus\all_stim\occlusion\partialviewing\manysmall\low\manysmall_partialViewing_low_person2.png,mask_img/000000061867.png,experiment,q,q,701.8903564000066
V3,17,23,Female,Right,210,Block 2,2.3378799999918556,0.025,true,building,building,occlusion,control,mask,partial viewing,few large,Stimulus\all_stim\occlusion\partialviewing\fewlarge\control\fewlarge_partialViewing_control_building4.png,mask_img/000000004239.png,experiment,u,u,704.9624378000008
V3,17,23,Female,Right,211,Block 2,1.5764257999981055,0.1,true,firehydrant,firehydrant,occlusion,high,mask,partial viewing,many small,Stimulus\all_stim\occlusion\partialviewing\manysmall\high\manysmall_partialViewing_high_firehydrant3.png,mask_img/000000050276.png,experiment,r,r,707.2343662000058
V3,17,23,Female,Right,212,Block 2,1.1294174999929965,0.025,true,firehydrant,firehydrant,occlusion,control,mask,partial viewing,few large,Stimulus\all_stim\occlusion\partialviewing\fewlarge\control\fewlarge_partialViewing_control_firehydrant8.png,mask_img/000000008193.png,experiment,r,r,709.0985216000117
V3,17,23,Female,Right,213,Block 2,0.8534463999967556,0.1,true,firehydrant,firehydrant,occlusion,low,mask,partial viewing,many small,Stimulus\all_stim\occlusion\partialviewing\manysmall\low\manysmall_partialViewing_low_firehydrant5.png,mask_img/000000060623.png,experiment,r,r,710.9303437000053
V3,17,23,Female,Right,214,Block 2,0.6996206999901915,0.05,true,person,person,occlusion,low,mask,partial viewing,many small,Stimulus\all_stim\occlusion\partialviewing\manysmall\low\manysmall_partialViewing_low_person8.png,mask_img/000000062420.png,experiment,q,q,712.698547500011
V3,17,23,Female,Right,215,Block 2,0.6810737000050722,0.05,false,bus,person,occlusion,high,mask,partial viewing,many small,Stimulus\all_stim\occlusion\partialviewing\manysmall\high\manysmall_partialViewing_high_bus9.png,mask_img/000000048268.png,experiment,q,w,714.2346818000078
V3,17,23,Female,Right,216,Block 2,0.925237699993886,0.025,true,tree,tree,occlusion,control,mask,partial viewing,many small,Stimulus\all_stim\occlusion\partialviewing\manysmall\control\manysmall_partialViewing_control_tree7.png,mask_img/000000041434.png,experiment,p,p,716.1143672000035
V3,17,23,Female,Right,217,Block 2,2.0655159000016283,0.025,true,bus,bus,occlusion,control,mask,partial viewing,few large,Stimulus\all_stim\occlusion\partialviewing\fewlarge\control\fewlarge_partialViewing_control_bus5.png,mask_img/000000005615.png,experiment,w,w,719.0664590000088
V3,17,23,Female,Right,218,Block 2,1.3106066999898758,0.1,true,firehydrant,firehydrant,occlusion,high,mask,partial viewing,few large,Stimulus\all_stim\occlusion\partialviewing\fewlarge\high\fewlarge_partialViewing_high_firehydrant2.png,mask_img/000000018743.png,experiment,r,r,721.5143547000043
V3,17,23,Female,Right,219,Block 2,1.936817699999665,0.1,true,bird,bird,occlusion,control,mask,partial viewing,many small,Stimulus\all_stim\occlusion\partialviewing\manysmall\control\manysmall_partialViewing_control_bird9.png,mask_img/000000035514.png,experiment,e,e,724.4586871000065
V3,17,23,Female,Right,220,Block 2,0.8432575000042561,0.025,true,firehydrant,firehydrant,occlusion,low,mask,partial viewing,few large,Stimulus\all_stim\occlusion\partialviewing\fewlarge\low\fewlarge_partialViewing_low_firehydrant8.png,mask_img/000000028988.png,experiment,r,r,726.0262890000013
V3,17,23,Female,Right,221,Block 2,0.7303972999943653,0.05,false,firehydrant,bird,occlusion,low,mask,partial viewing,many small,Stimulus\all_stim\occlusion\partialviewing\manysmall\low\manysmall_partialViewing_low_firehydrant5.png,mask_img/000000060623.png,experiment,e,r,727.8423354000115
V3,17,23,Female,Right,222,Block 2,1.0782247000024654,0.025,true,cat,cat,occlusion,control,mask,partial viewing,few large,Stimulus\all_stim\occlusion\partialviewing\fewlarge\control\fewlarge_partialViewing_control_cat4.png,mask_img/000000006842.png,experiment,o,o,729.6442282000062
V3,17,23,Female,Right,223,Block 2,1.5751855999988038,0.05,true,cat,cat,occlusion,control,mask,partial viewing,many small,Stimulus\all_stim\occlusion\partialviewing\manysmall\control\manysmall_partialViewing_control_cat4.png,mask_img/000000038479.png,experiment,o,o,732.0363471000019
V3,17,23,Female,Right,224,Block 2,1.5276751999917906,0.1,true,tree,tree,occlusion,control,mask,partial viewing,many small,Stimulus\all_stim\occlusion\partialviewing\manysmall\control\manysmall_partialViewing_control_tree9.png,mask_img/000000041840.png,experiment,p,p,734.5306073000102
V3,17,23,Female,Right,225,Block 2,0.8981376000010641,0.1,true,cat,cat,occlusion,low,mask,partial viewing,few large,Stimulus\all_stim\occlusion\partialviewing\fewlarge\low\fewlarge_partialViewing_low_cat6.png,mask_img/000000027764.png,experiment,o,o,736.1626362000097
V3,17,23,Female,Right,226,Block 2,1.4316853000054834,0.025,false,bus,building,occlusion,high,mask,partial viewing,few large,Stimulus\all_stim\occlusion\partialviewing\fewlarge\high\fewlarge_partialViewing_high_bus7.png,mask_img/000000016238.png,experiment,u,w,738.4104051000031
V3,17,23,Female,Right,227,Block 2,1.2119883999985177,0.025,true,building,building,occlusion,control,mask,partial viewing,few large,Stimulus\all_stim\occlusion\partialviewing\fewlarge\control\fewlarge_partialViewing_control_building5.png,mask_img/000000004642.png,experiment,u,u,740.4665173000103
V3,17,23,Female,Right,228,Block 2,0.8580771999986609,0.05,true,cat,cat,occlusion,high,mask,partial viewing,few large,Stimulus\all_stim\occlusion\partialviewing\fewlarge\high\fewlarge_partialViewing_high_cat10.png,mask_img/000000017308.png,experiment,o,o,742.3463350000093
V3,17,23,Female,Right,229,Block 2,1.3802173000003677,0.1,true,bus,bus,occlusion,high,mask,partial viewing,many small,Stimulus\all_stim\occlusion\partialviewing\manysmall\high\manysmall_partialViewing_high_bus6.png,mask_img/000000047407.png,experiment,w,w,744.5464539000095
V3,17,23,Female,Right,230,Block 2,0.5974122999905376,0.1,true,person,person,occlusion,control,mask,partial viewing,few large,Stimulus\all_stim\occlusion\partialviewing\fewlarge\control\fewlarge_partialViewing_control_person1.png,mask_img/000000008341.png,experiment,q,q,745.8136774000013
V3,17,23,Female,Right,231,Block 2,0.8871911000023829,0.025,false,bird,person,occlusion,high,mask,partial viewing,many small,Stimulus\all_stim\occlusion\partialviewing\manysmall\high\manysmall_partialViewing_high_bird10.png,mask_img/000000044065.png,experiment,q,e,747.56249940001
V3,17,23,Female,Right,232,Block 2,1.3335998999973526,0.025,false,bus,building,occlusion,high,mask,partial viewing,many small,Stimulus\all_stim\occlusion\partialviewing\manysmall\high\manysmall_partialViewing_high_bus8.png,mask_img/000000048169.png,experiment,u,w,749.7233980000019
V3,17,23,Female,Right,233,Block 2,0.5212214999919524,0.025,true,person,person,occlusion,low,mask,partial viewing,few large,Stimulus\all_stim\occlusion\partialviewing\fewlarge\low\fewlarge_partialViewing_low_person7.png,mask_img/000000030526.png,experiment,q,q,750.9489216000075
V3,17,23,Female,Right,234,Block 2,1.4697562000073958,0.1,false,bird,cat,occlusion,high,mask,partial viewing,many small,Stimulus\all_stim\occlusion\partialviewing\manysmall\high\manysmall_partialViewing_high_bird2.png,mask_img/000000044117.png,experiment,o,e,753.4906264000019
V3,17,23,Female,Right,235,Block 2,1.1300746999913827,0.1,true,firehydrant,firehydrant,occlusion,high,mask,partial viewing,many small,Stimulus\all_stim\occlusion\partialviewing\manysmall\high\manysmall_partialViewing_high_firehydrant7.png,mask_img/000000050790.png,experiment,r,r,755.6903901000042
V3,17,23,Female,Right,236,Block 2,0.47360689999186434,0.1,true,firehydrant,firehydrant,occlusion,control,mask,partial viewing,few large,Stimulus\all_stim\occlusion\partialviewing\fewlarge\control\fewlarge_partialViewing_control_firehydrant10.png,mask_img/000000007758.png,experiment,r,r,757.0677655000036
V3,17,23,Female,Right,237,Block 2,1.0207815000030678,0.1,true,building,building,occlusion,low,mask,partial viewing,few large,Stimulus\all_stim\occlusion\partialviewing\fewlarge\low\fewlarge_partialViewing_low_building5.png,mask_img/000000025034.png,experiment,u,u,758.8184715000098
V3,17,23,Female,Right,238,Block 2,0.7674084999889601,0.1,true,cat,cat,occlusion,control,mask,partial viewing,many small,Stimulus\all_stim\occlusion\partialviewing\manysmall\control\manysmall_partialViewing_control_cat8.png,mask_img/000000038817.png,experiment,o,o,760.6345724999992
V3,17,23,Female,Right,239,Block 2,2.0360540999972727,0.025,true,building,building,occlusion,high,mask,partial viewing,few large,Stimulus\all_stim\occlusion\partialviewing\fewlarge\high\fewlarge_partialViewing_high_building8.png,mask_img/000000015366.png,experiment,u,u,763.4824618999992
V3,17,23,Female,Right,240,Block 2,0.8290279000066221,0.025,true,building,building,occlusion,high,mask,partial viewing,many small,Stimulus\all_stim\occlusion\partialviewing\manysmall\high\manysmall_partialViewing_high_building2.png,mask_img/000000045306.png,experiment,u,u,765.2103212000075
V3,17,23,Female,Right,241,Block 2,1.8595318000006955,0.05,true,tree,tree,occlusion,control,mask,partial viewing,few large,Stimulus\all_stim\occlusion\partialviewing\fewlarge\control\fewlarge_partialViewing_control_tree1.png,mask_img/000000010281.png,experiment,p,p,767.794693600008
V3,17,23,Female,Right,242,Block 2,1.0565115999925183,0.1,true,firehydrant,firehydrant,occlusion,low,mask,partial viewing,many small,Stimulus\all_stim\occlusion\partialviewing\manysmall\low\manysmall_partialViewing_low_firehydrant7.png,mask_img/000000061084.png,experiment,r,r,769.9385620000103
V3,17,23,Female,Right,243,Block 2,1.1041559000004781,0.025,false,bus,building,occlusion,high,mask,partial viewing,few large,Stimulus\all_stim\occlusion\partialviewing\fewlarge\high\fewlarge_partialViewing_high_bus2.png,mask_img/000000015862.png,experiment,u,w,772.0506220000098
V3,17,23,Female,Right,244,Block 2,1.0096302000019932,0.1,true,tree,tree,occlusion,high,mask,partial viewing,few large,Stimulus\all_stim\occlusion\partialviewing\fewlarge\high\fewlarge_partialViewing_high_tree8.png,mask_img/000000022355.png,experiment,p,p,774.1464864000009
V3,17,23,Female,Right,245,Block 2,1.3181927999976324,0.1,true,bus,bus,occlusion,high,mask,partial viewing,few large,Stimulus\all_stim\occlusion\partialviewing\fewlarge\high\fewlarge_partialViewing_high_bus4.png,mask_img/000000015927.png,experiment,w,w,776.5146032000048
V3,17,23,Female,Right,246,Block 2,0.4468093999894336,0.1,true,bus,bus,occlusion,control,mask,partial viewing,few large,Stimulus\all_stim\occlusion\partialviewing\fewlarge\control\fewlarge_partialViewing_control_bus10.png,mask_img/000000005282.png,experiment,w,w,778.0088963000017
V3,17,23,Female,Right,247,Block 2,0.9361114999919664,0.05,true,firehydrant,firehydrant,occlusion,low,mask,partial viewing,many small,Stimulus\all_stim\occlusion\partialviewing\manysmall\low\manysmall_partialViewing_low_firehydrant10.png,mask_img/000000060529.png,experiment,r,r,779.6586831000022
V3,17,23,Female,Right,248,Block 2,0.43156399999861605,0.025,true,firehydrant,firehydrant,occlusion,high,mask,partial viewing,few large,Stimulus\all_stim\occlusion\partialviewing\fewlarge\high\fewlarge_partialViewing_high_firehydrant5.png,mask_img/000000018982.png,experiment,r,r,780.9445004000008
V3,17,23,Female,Right,249,Block 2,2.104927599997609,0.025,true,bird,bird,occlusion,control,mask,partial viewing,few large,Stimulus\all_stim\occlusion\partialviewing\fewlarge\control\fewlarge_partialViewing_control_bird1.png,mask_img/000000000873.png,experiment,e,e,784.050487200002
V3,17,23,Female,Right,250,Block 2,1.6333864000043832,0.1,true,building,building,occlusion,low,mask,partial viewing,many small,Stimulus\all_stim\occlusion\partialviewing\manysmall\low\manysmall_partialViewing_low_building8.png,mask_img/000000058073.png,experiment,u,u,786.5787890000065
V3,17,23,Female,Right,251,Block 2,0.6366051999939373,0.05,true,person,person,occlusion,low,mask,partial viewing,few large,Stimulus\all_stim\occlusion\partialviewing\fewlarge\low\fewlarge_partialViewing_low_person6.png,mask_img/000000030267.png,experiment,q,q,788.202652100008
V3,17,23,Female,Right,252,Block 2,1.443998200003989,0.1,true,building,building,occlusion,low,mask,partial viewing,few large,Stimulus\all_stim\occlusion\partialviewing\fewlarge\low\fewlarge_partialViewing_low_building3.png,mask_img/000000024808.png,experiment,u,u,790.7145963000075
V3,17,23,Female,Right,253,Block 2,0.6041620000032708,0.1,true,person,person,occlusion,control,mask,partial viewing,few large,Stimulus\all_stim\occlusion\partialviewing\fewlarge\control\fewlarge_partialViewing_control_person10.png,mask_img/000000008469.png,experiment,q,q,792.3637707000016
V3,17,23,Female,Right,254,Block 2,0.8575801999977557,0.05,true,firehydrant,firehydrant,occlusion,high,mask,partial viewing,many small,Stimulus\all_stim\occlusion\partialviewing\manysmall\high\manysmall_partialViewing_high_firehydrant5.png,mask_img/000000050496.png,experiment,r,r,794.0424210000056
V3,17,23,Female,Right,255,Block 2,0.5685784999950556,0.1,false,bird,person,occlusion,high,mask,partial viewing,many small,Stimulus\all_stim\occlusion\partialviewing\manysmall\high\manysmall_partialViewing_high_bird6.png,mask_img/000000044523.png,experiment,q,e,795.5490220000065
V3,17,23,Female,Right,256,Block 2,0.836165799992159,0.1,false,bird,firehydrant,occlusion,low,mask,partial viewing,few large,Stimulus\all_stim\occlusion\partialviewing\fewlarge\low\fewlarge_partialViewing_low_bird2.png,mask_img/000000024125.png,experiment,r,e,797.2342820000049
V3,17,23,Female,Right,257,Block 2,0.9177675999962958,0.025,true,banana,banana,occlusion,low,mask,partial viewing,many small,Stimulus\all_stim\occlusion\partialviewing\manysmall\low\manysmall_partialViewing_low_banana5.png,mask_img/000000055388.png,experiment,i,i,798.9383295000007
V3,17,23,Female,Right,258,Block 2,1.5298317999986466,0.1,true,banana,banana,occlusion,low,mask,partial viewing,few large,Stimulus\all_stim\occlusion\partialviewing\fewlarge\low\fewlarge_partialViewing_low_banana5.png,mask_img/000000023100.png,experiment,i,i,801.2984806000022
V3,17,23,Female,Right,259,Block 2,0.7049017999961507,0.1,true,banana,banana,occlusion,low,mask,partial viewing,many small,Stimulus\all_stim\occlusion\partialviewing\manysmall\low\manysmall_partialViewing_low_banana10.png,mask_img/000000054723.png,experiment,i,i,803.0104004000023
V3,17,23,Female,Right,260,Block 2,1.1849496999930125,0.025,true,building,building,occlusion,low,mask,partial viewing,many small,Stimulus\all_stim\occlusion\partialviewing\manysmall\low\manysmall_partialViewing_low_building6.png,mask_img/000000057979.png,experiment,u,u,805.1782811000012
V3,17,23,Female,Right,261,Block 2,0.4601271999999881,0.1,true,person,person,occlusion,low,mask,partial viewing,few large,Stimulus\all_stim\occlusion\partialviewing\fewlarge\low\fewlarge_partialViewing_low_person5.png,mask_img/000000029964.png,experiment,q,q,806.6877566000039
V3,17,23,Female,Right,262,Block 2,1.331842500003404,0.025,true,building,building,occlusion,control,mask,partial viewing,few large,Stimulus\all_stim\occlusion\partialviewing\fewlarge\control\fewlarge_partialViewing_control_building2.png,mask_img/000000003483.png,experiment,u,u,808.8903336000076
V3,17,23,Female,Right,263,Block 2,1.2032217999949353,0.025,false,person,cat,occlusion,high,mask,partial viewing,many small,Stimulus\all_stim\occlusion\partialviewing\manysmall\high\manysmall_partialViewing_high_person7.png,mask_img/000000052562.png,experiment,o,q,810.8185302000056
V3,17,23,Female,Right,264,Block 2,1.7517039999947883,0.1,true,tree,tree,occlusion,control,mask,partial viewing,many small,Stimulus\all_stim\occlusion\partialviewing\manysmall\control\manysmall_partialViewing_control_tree8.png,mask_img/000000041577.png,experiment,p,p,813.4503527000052
V3,17,23,Female,Right,265,Block 2,2.63566329999594,0.1,true,building,building,occlusion,control,mask,partial viewing,few large,Stimulus\all_stim\occlusion\partialviewing\fewlarge\control\fewlarge_partialViewing_control_building7.png,mask_img/000000004936.png,experiment,u,u,817.2424451000115
V3,17,23,Female,Right,266,Block 2,1.883417200006079,0.1,true,tree,tree,occlusion,low,mask,partial viewing,few large,Stimulus\all_stim\occlusion\partialviewing\fewlarge\low\fewlarge_partialViewing_low_tree2.png,mask_img/000000031601.png,experiment,p,p,819.8265431000036
V3,17,23,Female,Right,267,Block 2,0.7386998000001768,0.025,true,person,person,occlusion,low,mask,partial viewing,few large,Stimulus\all_stim\occlusion\partialviewing\fewlarge\low\fewlarge_partialViewing_low_person9.png,mask_img/000000031017.png,experiment,q,q,821.3943107000086
V3,17,23,Female,Right,268,Block 2,2.5139176000084262,0.025,true,building,building,occlusion,low,mask,partial viewing,few large,Stimulus\all_stim\occlusion\partialviewing\fewlarge\low\fewlarge_partialViewing_low_building2.png,mask_img/000000024702.png,experiment,u,u,825.0425249000109
V3,17,23,Female,Right,269,Block 2,1.8503888999985065,0.1,true,firehydrant,firehydrant,occlusion,control,mask,partial viewing,many small,Stimulus\all_stim\occlusion\partialviewing\manysmall\control\manysmall_partialViewing_control_firehydrant9.png,mask_img/000000039643.png,experiment,r,r,827.6343756999995
V3,17,23,Female,Right,270,Block 2,0.9002046999958111,0.1,true,tree,tree,occlusion,control,mask,partial viewing,many small,Stimulus\all_stim\occlusion\partialviewing\manysmall\control\manysmall_partialViewing_control_tree5.png,mask_img/000000041174.png,experiment,p,p,829.5225662000012
V3,17,23,Female,Right,271,Block 2,2.368985099994461,0.05,false,bus,building,occlusion,high,mask,partial viewing,few large,Stimulus\all_stim\occlusion\partialviewing\fewlarge\high\fewlarge_partialViewing_high_bus6.png,mask_img/000000015987.png,experiment,u,w,832.8667103000043
V3,17,23,Female,Right,272,Block 2,1.011541700005182,0.025,true,firehydrant,firehydrant,occlusion,low,mask,partial viewing,many small,Stimulus\all_stim\occlusion\partialviewing\manysmall\low\manysmall_partialViewing_low_firehydrant8.png,mask_img/000000061512.png,experiment,r,r,834.858500900009
V3,17,23,Female,Right,273,Block 2,2.3025215999950888,0.05,true,tree,tree,occlusion,low,mask,partial viewing,many small,Stimulus\all_stim\occlusion\partialviewing\manysmall\low\manysmall_partialViewing_low_tree8.png,mask_img/000000063804.png,experiment,p,p,837.8742893000017
V3,17,23,Female,Right,274,Block 2,0.7267980000033276,0.1,true,tree,tree,occlusion,high,mask,partial viewing,few large,Stimulus\all_stim\occlusion\partialviewing\fewlarge\high\fewlarge_partialViewing_high_tree10.png,mask_img/000000021419.png,experiment,p,p,839.3303233000042
V3,17,23,Female,Right,275,Block 2,1.4089832000026945,0.025,true,tree,tree,occlusion,high,mask,partial viewing,few large,Stimulus\all_stim\occlusion\partialviewing\fewlarge\high\fewlarge_partialViewing_high_tree7.png,mask_img/000000022256.png,experiment,p,p,841.6103555000009
V3,17,23,Female,Right,276,Block 2,1.4927687000017613,0.05,true,banana,banana,occlusion,control,mask,partial viewing,few large,Stimulus\all_stim\occlusion\partialviewing\fewlarge\control\fewlarge_partialViewing_control_banana2.png,mask_img/000000000312.png,experiment,i,i,844.0424100000091
V3,17,23,Female,Right,277,Block 2,1.26736090000486,0.05,false,bird,banana,occlusion,low,mask,partial viewing,many small,Stimulus\all_stim\occlusion\partialviewing\manysmall\low\manysmall_partialViewing_low_bird8.png,mask_img/000000056137.png,experiment,i,e,846.0181644000113
V3,17,23,Female,Right,278,Block 2,1.93236770000658,0.05,true,firehydrant,firehydrant,occlusion,high,mask,partial viewing,few large,Stimulus\all_stim\occlusion\partialviewing\fewlarge\high\fewlarge_partialViewing_high_firehydrant5.png,mask_img/000000018982.png,experiment,r,r,848.6507067000057
V3,17,23,Female,Right,279,Block 2,2.736514799995348,0.05,false,bird,cat,occlusion,high,mask,partial viewing,few large,Stimulus\all_stim\occlusion\partialviewing\fewlarge\high\fewlarge_partialViewing_high_bird10.png,mask_img/000000013127.png,experiment,o,e,852.4105151000113
V3,17,23,Female,Right,280,Block 2,0.7791569999972126,0.1,true,person,person,occlusion,high,mask,partial viewing,many small,Stimulus\all_stim\occlusion\partialviewing\manysmall\high\manysmall_partialViewing_high_person8.png,mask_img/000000052606.png,experiment,q,q,854.1542947000125
V3,17,23,Female,Right,281,Block 2,1.1616403000080027,0.05,false,cat,person,occlusion,high,mask,partial viewing,many small,Stimulus\all_stim\occlusion\partialviewing\manysmall\high\manysmall_partialViewing_high_cat10.png,mask_img/000000048929.png,experiment,q,o,855.9703473000118
V3,17,23,Female,Right,282,Block 2,2.197847900009947,0.025,true,bird,bird,occlusion,control,mask,partial viewing,few large,Stimulus\all_stim\occlusion\partialviewing\fewlarge\control\fewlarge_partialViewing_control_bird7.png,mask_img/000000002774.png,experiment,e,e,859.0748011000105
V3,17,23,Female,Right,283,Block 2,1.644551000004867,0.1,true,cat,cat,occlusion,high,mask,partial viewing,few large,Stimulus\all_stim\occlusion\partialviewing\fewlarge\high\fewlarge_partialViewing_high_cat6.png,mask_img/000000017476.png,experiment,o,o,861.4745264000085
V3,17,23,Female,Right,284,Block 2,1.3576157999923453,0.1,true,bird,bird,occlusion,low,mask,partial viewing,many small,Stimulus\all_stim\occlusion\partialviewing\manysmall\low\manysmall_partialViewing_low_bird1.png,mask_img/000000055694.png,experiment,e,e,863.9702912000066
V3,17,23,Female,Right,285,Block 2,1.3820981999888318,0.025,false,bus,bird,occlusion,high,mask,partial viewing,many small,Stimulus\all_stim\occlusion\partialviewing\manysmall\high\manysmall_partialViewing_high_bus10.png,mask_img/000000046805.png,experiment,e,w,866.0102845000074
V3,17,23,Female,Right,286,Block 2,0.9128504999971483,0.1,false,banana,cat,occlusion,low,mask,partial viewing,many small,Stimulus\all_stim\occlusion\partialviewing\manysmall\low\manysmall_partialViewing_low_banana9.png,mask_img/000000055652.png,experiment,o,i,867.7464499000052
V3,17,23,Female,Right,287,Block 2,1.128276300005382,0.025,true,bird,bird,occlusion,low,mask,partial viewing,few large,Stimulus\all_stim\occlusion\partialviewing\fewlarge\low\fewlarge_partialViewing_low_bird3.png,mask_img/000000024157.png,experiment,e,e,869.6267018000071
V3,17,23,Female,Right,288,Block 2,1.7916446000017459,0.1,true,cat,cat,occlusion,high,mask,partial viewing,many small,Stimulus\all_stim\occlusion\partialviewing\manysmall\high\manysmall_partialViewing_high_cat5.png,mask_img/000000049428.png,experiment,o,o,885.8984449999989
V3,17,23,Female,Right,289,Block 3,2.152360599997337,0.1,true,building,building,occlusion,low,mask,partial viewing,few large,Stimulus\all_stim\occlusion\partialviewing\fewlarge\low\fewlarge_partialViewing_low_building8.png,mask_img/000000025453.png,experiment,u,u,889.0507545
V3,17,23,Female,Right,290,Block 3,0.9241483000078006,0.025,true,person,person,occlusion,low,mask,partial viewing,many small,Stimulus\all_stim\occlusion\partialviewing\manysmall\low\manysmall_partialViewing_low_person2.png,mask_img/000000061867.png,experiment,q,q,890.7063763000042
V3,17,23,Female,Right,291,Block 3,1.6225065000035102,0.05,true,cat,cat,occlusion,control,mask,partial viewing,few large,Stimulus\all_stim\occlusion\partialviewing\fewlarge\control\fewlarge_partialViewing_control_cat3.png,mask_img/000000006709.png,experiment,o,o,893.4749798999983
V3,17,23,Female,Right,292,Block 3,1.9709677000064403,0.1,true,tree,tree,occlusion,control,mask,partial viewing,many small,Stimulus\all_stim\occlusion\partialviewing\manysmall\control\manysmall_partialViewing_control_tree2.png,mask_img/000000041008.png,experiment,p,p,896.2825179000065
V3,17,23,Female,Right,293,Block 3,1.5994282999890856,0.05,true,building,building,occlusion,low,mask,partial viewing,many small,Stimulus\all_stim\occlusion\partialviewing\manysmall\low\manysmall_partialViewing_low_building7.png,mask_img/000000058021.png,experiment,u,u,898.8905872000032
V3,17,23,Female,Right,294,Block 3,0.9584633999911603,0.025,true,person,person,occlusion,control,mask,partial viewing,few large,Stimulus\all_stim\occlusion\partialviewing\fewlarge\control\fewlarge_partialViewing_control_person7.png,mask_img/000000009648.png,experiment,q,q,900.8581169000099
V3,17,23,Female,Right,295,Block 3,1.234830300003523,0.025,true,building,building,occlusion,low,mask,partial viewing,few large,Stimulus\all_stim\occlusion\partialviewing\fewlarge\low\fewlarge_partialViewing_low_building3.png,mask_img/000000024808.png,experiment,u,u,903.1062228000083
V3,17,23,Female,Right,296,Block 3,1.8411714999965625,0.025,true,cat,cat,occlusion,high,mask,partial viewing,many small,Stimulus\all_stim\occlusion\partialviewing\manysmall\high\manysmall_partialViewing_high_cat6.png,mask_img/000000049562.png,experiment,o,o,905.6761534000107
V3,17,23,Female,Right,297,Block 3,1.1852778999891598,0.1,false,bird,cat,occlusion,high,mask,partial viewing,many small,Stimulus\all_stim\occlusion\partialviewing\manysmall\high\manysmall_partialViewing_high_bird5.png,mask_img/000000044437.png,experiment,o,e,907.650327100011
V3,17,23,Female,Right,298,Block 3,0.9585356000025058,0.025,false,bird,cat,occlusion,high,mask,partial viewing,few large,Stimulus\all_stim\occlusion\partialviewing\fewlarge\high\fewlarge_partialViewing_high_bird5.png,mask_img/000000013914.png,experiment,o,e,909.2742212000012
V3,17,23,Female,Right,299,Block 3,1.3035662999900524,0.05,true,bus,bus,occlusion,control,mask,partial viewing,many small,Stimulus\all_stim\occlusion\partialviewing\manysmall\control\manysmall_partialViewing_control_bus2.png,mask_img/000000036622.png,experiment,w,w,911.3302056000102
V3,17,23,Female,Right,300,Block 3,0.7778050000051735,0.025,true,cat,cat,occlusion,low,mask,partial viewing,few large,Stimulus\all_stim\occlusion\partialviewing\fewlarge\low\fewlarge_partialViewing_low_cat8.png,mask_img/000000028171.png,experiment,o,o,913.0582756000076
V3,17,23,Female,Right,301,Block 3,0.8595314999984112,0.1,true,tree,tree,occlusion,high,mask,partial viewing,many small,Stimulus\all_stim\occlusion\partialviewing\manysmall\high\manysmall_partialViewing_high_tree5.png,mask_img/000000053410.png,experiment,p,p,914.9062058000127
V3,17,23,Female,Right,302,Block 3,0.457826700003352,0.025,true,cat,cat,occlusion,control,mask,partial viewing,few large,Stimulus\all_stim\occlusion\partialviewing\fewlarge\control\fewlarge_partialViewing_control_cat2.png,mask_img/000000006489.png,experiment,o,o,916.4436904000031
V3,17,23,Female,Right,303,Block 3,0.7226170000067214,0.025,true,bus,bus,occlusion,high,mask,partial viewing,few large,Stimulus\all_stim\occlusion\partialviewing\fewlarge\high\fewlarge_partialViewing_high_bus6.png,mask_img/000000015987.png,experiment,w,w,918.2024305000086
V3,17,23,Female,Right,304,Block 3,0.4121483999915654,0.05,true,person,person,occlusion,control,mask,partial viewing,few large,Stimulus\all_stim\occlusion\partialviewing\fewlarge\control\fewlarge_partialViewing_control_person2.png,mask_img/000000008787.png,experiment,q,q,919.6274218000035
V3,17,23,Female,Right,305,Block 3,1.3976292000006652,0.05,true,building,building,occlusion,control,mask,partial viewing,many small,Stimulus\all_stim\occlusion\partialviewing\manysmall\control\manysmall_partialViewing_control_building8.png,mask_img/000000036091.png,experiment,u,u,922.050261299999
V3,17,23,Female,Right,306,Block 3,1.4249509000073886,0.05,true,cat,cat,occlusion,low,mask,partial viewing,few large,Stimulus\all_stim\occlusion\partialviewing\fewlarge\low\fewlarge_partialViewing_low_cat8.png,mask_img/000000028171.png,experiment,o,o,924.498556400009
V3,17,23,Female,Right,307,Block 3,1.0401539000013145,0.1,true,cat,cat,occlusion,control,mask,partial viewing,few large,Stimulus\all_stim\occlusion\partialviewing\fewlarge\control\fewlarge_partialViewing_control_cat7.png,mask_img/000000007325.png,experiment,o,o,926.5223512000084
V3,17,23,Female,Right,308,Block 3,0.6428176000044914,0.1,true,tree,tree,occlusion,low,mask,partial viewing,few large,Stimulus\all_stim\occlusion\partialviewing\fewlarge\low\fewlarge_partialViewing_low_tree9.png,mask_img/000000032965.png,experiment,p,p,927.8319416000013
V3,17,23,Female,Right,309,Block 3,1.9391548999992665,0.05,true,bird,bird,occlusion,control,mask,partial viewing,few large,Stimulus\all_stim\occlusion\partialviewing\fewlarge\control\fewlarge_partialViewing_control_bird1.png,mask_img/000000000873.png,experiment,e,e,930.5559796000016
V3,17,23,Female,Right,310,Block 3,1.8952028000057908,0.05,true,building,building,occlusion,high,mask,partial viewing,many small,Stimulus\all_stim\occlusion\partialviewing\manysmall\high\manysmall_partialViewing_high_building7.png,mask_img/000000046171.png,experiment,u,u,933.1306814999989
V3,17,23,Female,Right,311,Block 3,2.718880699991132,0.1,true,bird,bird,occlusion,high,mask,partial viewing,many small,Stimulus\all_stim\occlusion\partialviewing\manysmall\high\manysmall_partialViewing_high_bird8.png,mask_img/000000044831.png,experiment,e,e,936.842455200007
V3,17,23,Female,Right,312,Block 3,0.9420573999959743,0.05,true,bus,bus,occlusion,control,mask,partial viewing,few large,Stimulus\all_stim\occlusion\partialviewing\fewlarge\control\fewlarge_partialViewing_control_bus10.png,mask_img/000000005282.png,experiment,w,w,938.6584680000087
V3,17,23,Female,Right,313,Block 3,1.6324991000001319,0.05,true,banana,banana,occlusion,high,mask,partial viewing,many small,Stimulus\all_stim\occlusion\partialviewing\manysmall\high\manysmall_partialViewing_high_banana1.png,mask_img/000000041962.png,experiment,i,i,941.1621696000075
V3,17,23,Female,Right,314,Block 3,1.6143474999989849,0.05,false,tree,bird,occlusion,low,mask,partial viewing,many small,Stimulus\all_stim\occlusion\partialviewing\manysmall\low\manysmall_partialViewing_low_tree10.png,mask_img/000000062716.png,experiment,e,p,943.7381969000126
V3,17,23,Female,Right,315,Block 3,1.5896611999924062,0.05,true,cat,cat,occlusion,low,mask,partial viewing,few large,Stimulus\all_stim\occlusion\partialviewing\fewlarge\low\fewlarge_partialViewing_low_cat1.png,mask_img/000000027151.png,experiment,o,o,946.0024163000053
V3,17,23,Female,Right,316,Block 3,0.8543746000068495,0.1,true,banana,banana,occlusion,control,mask,partial viewing,many small,Stimulus\all_stim\occlusion\partialviewing\manysmall\control\manysmall_partialViewing_control_banana5.png,mask_img/000000033669.png,experiment,i,i,947.6902713000018
V3,17,23,Female,Right,317,Block 3,0.6056318000046303,0.1,true,cat,cat,occlusion,high,mask,partial viewing,few large,Stimulus\all_stim\occlusion\partialviewing\fewlarge\high\fewlarge_partialViewing_high_cat9.png,mask_img/000000017858.png,experiment,o,o,949.2883503000048
V3,17,23,Female,Right,318,Block 3,0.9652598999964539,0.05,true,bus,bus,occlusion,high,mask,partial viewing,many small,Stimulus\all_stim\occlusion\partialviewing\manysmall\high\manysmall_partialViewing_high_bus7.png,mask_img/000000047471.png,experiment,w,w,951.0502907000046
V3,17,23,Female,Right,319,Block 3,1.3509923000092385,0.025,false,cat,bird,occlusion,high,mask,partial viewing,many small,Stimulus\all_stim\occlusion\partialviewing\manysmall\high\manysmall_partialViewing_high_cat8.png,mask_img/000000049763.png,experiment,e,o,953.4824863000104
V3,17,23,Female,Right,320,Block 3,0.642742800002452,0.025,true,bus,bus,occlusion,high,mask,partial viewing,many small,Stimulus\all_stim\occlusion\partialviewing\manysmall\high\manysmall_partialViewing_high_bus2.png,mask_img/000000046852.png,experiment,w,w,955.0101188000117
V3,17,23,Female,Right,321,Block 3,0.9301718999922741,0.025,true,cat,cat,occlusion,low,mask,partial viewing,few large,Stimulus\all_stim\occlusion\partialviewing\fewlarge\low\fewlarge_partialViewing_low_cat2.png,mask_img/000000027371.png,experiment,o,o,956.6502143000107
V3,17,23,Female,Right,322,Block 3,1.2872684000030858,0.05,true,building,building,occlusion,control,mask,partial viewing,many small,Stimulus\all_stim\occlusion\partialviewing\manysmall\control\manysmall_partialViewing_control_building10.png,mask_img/000000035857.png,experiment,u,u,958.8745612000057
V3,17,23,Female,Right,323,Block 3,1.5768290999985766,0.025,false,cat,bird,occlusion,low,mask,partial viewing,many small,Stimulus\all_stim\occlusion\partialviewing\manysmall\low\manysmall_partialViewing_low_cat1.png,mask_img/000000059036.png,experiment,e,o,961.4901925000013
V3,17,23,Female,Right,324,Block 3,1.5686054999969201,0.05,true,building,building,occlusion,low,mask,partial viewing,many small,Stimulus\all_stim\occlusion\partialviewing\manysmall\low\manysmall_partialViewing_low_building10.png,mask_img/000000057068.png,experiment,u,u,964.1546428000001
V3,17,23,Female,Right,325,Block 3,1.950705299997935,0.1,false,cat,bird,occlusion,low,mask,partial viewing,few large,Stimulus\all_stim\occlusion\partialviewing\fewlarge\low\fewlarge_partialViewing_low_cat8.png,mask_img/000000028171.png,experiment,e,o,967.1461955000123
V3,17,23,Female,Right,326,Block 3,0.9350322000100277,0.025,true,building,building,occlusion,control,mask,partial viewing,many small,Stimulus\all_stim\occlusion\partialviewing\manysmall\control\manysmall_partialViewing_control_building8.png,mask_img/000000036091.png,experiment,u,u,969.1783499000012
V3,17,23,Female,Right,327,Block 3,0.7405947999941418,0.025,true,person,person,occlusion,control,mask,partial viewing,many small,Stimulus\all_stim\occlusion\partialviewing\manysmall\control\manysmall_partialViewing_control_person3.png,mask_img/000000040008.png,experiment,q,q,970.8439749000099
V3,17,23,Female,Right,328,Block 3,0.9225035999988904,0.05,true,banana,banana,occlusion,control,mask,partial viewing,few large,Stimulus\all_stim\occlusion\partialviewing\fewlarge\control\fewlarge_partialViewing_control_banana4.png,mask_img/000000000438.png,experiment,i,i,972.9143879000039
V3,17,23,Female,Right,329,Block 3,1.213823300000513,0.05,true,bird,bird,occlusion,control,mask,partial viewing,many small,Stimulus\all_stim\occlusion\partialviewing\manysmall\control\manysmall_partialViewing_control_bird4.png,mask_img/000000034691.png,experiment,e,e,975.0344041000062
V3,17,23,Female,Right,330,Block 3,1.0519923999963794,0.05,true,building,building,occlusion,high,mask,partial viewing,many small,Stimulus\all_stim\occlusion\partialviewing\manysmall\high\manysmall_partialViewing_high_building2.png,mask_img/000000045306.png,experiment,u,u,977.1544426000037
V3,17,23,Female,Right,331,Block 3,0.9690893000079086,0.1,true,bird,bird,occlusion,high,mask,partial viewing,few large,Stimulus\all_stim\occlusion\partialviewing\fewlarge\high\fewlarge_partialViewing_high_bird9.png,mask_img/000000014175.png,experiment,e,e,979.0261666000006
