Version,pt_num,Age,Gender,Handedness,trial_nbr,block_number,rt,soa,acc,category,choiced_category,manipulation,difficulty,mask,type_occl,size_occl,filename,mask_filename,task,pressed_key,correct_key,Experiment Duration
V3,29,25,Female,Left,1,Training,2.672581100021489,0.05,false,firehydrant,building,occlusion,low,mask,partial viewing,many small,Training_Stimulus\manysmall_partialViewing_low_firehydrant90.png,mask_img/000000006870.png,training,e,r,187.2706306000473
V3,29,25,Female,Left,2,Training,3.0839904999593273,0.05,false,banana,tree,occlusion,high,mask,partial viewing,many small,Training_Stimulus\manysmall_partialViewing_high_banana454.png,mask_img/000000005359.png,training,u,p,191.75475179997738
V3,29,25,Female,Left,3,Training,1.1067672000499442,0.1,true,tree,tree,occlusion,control,mask,partial viewing,many small,Training_Stimulus\manysmall_partialViewing_control_tree9.png,mask_img/000000005282.png,training,u,u,193.97378010000102
V3,29,25,Female,Left,4,Training,2.0198367999400944,0.05,true,building,building,occlusion,high,mask,partial viewing,few large,Training_Stimulus\fewlarge_partialViewing_high_building24.png,mask_img/000000000873.png,training,e,e,197.130048800027
V3,29,25,Female,Left,5,Training,1.4168634000234306,0.025,true,cat,cat,occlusion,high,mask,partial viewing,few large,Training_Stimulus\fewlarge_partialViewing_high_cat432.png,mask_img/000000001647.png,training,o,o,199.86436000000685
V3,29,25,Female,Left,6,Training,1.1764497000258416,0.025,false,bird,cat,occlusion,low,mask,partial viewing,many small,Training_Stimulus\manysmall_partialViewing_low_bird4.png,mask_img/000000006481.png,training,o,w,202.23936929996125
V3,29,25,Female,Left,7,Training,2.0813849000260234,0.05,true,firehydrant,firehydrant,occlusion,high,mask,partial viewing,few large,Training_Stimulus\fewlarge_partialViewing_high_firehydrant90.png,mask_img/000000001810.png,training,r,r,205.8501426000148
V3,29,25,Female,Left,8,Training,1.5151397000299767,0.025,true,banana,banana,occlusion,control,mask,partial viewing,few large,Training_Stimulus\fewlarge_partialViewing_control_banana454.png,mask_img/000000000042.png,training,p,p,208.50647320004646
V3,29,25,Female,Left,9,Training,1.1691519999876618,0.1,false,banana,cat,occlusion,high,mask,partial viewing,many small,Training_Stimulus\manysmall_partialViewing_high_banana454.png,mask_img/000000005359.png,training,o,p,211.20960890001152
V3,29,25,Female,Left,10,Training,1.1744887999957427,0.1,true,cat,cat,occlusion,low,mask,partial viewing,many small,Training_Stimulus\manysmall_partialViewing_low_cat432.png,mask_img/000000006842.png,training,o,o,213.80435770004988
V3,29,25,Female,Left,11,Training,2.2383343999972567,0.05,true,building,building,occlusion,high,mask,partial viewing,many small,Training_Stimulus\manysmall_partialViewing_high_building24.png,mask_img/000000005574.png,training,e,e,217.36789830005728
V3,29,25,Female,Left,12,Training,1.3935460000066087,0.05,false,bird,person,occlusion,high,mask,partial viewing,few large,Training_Stimulus\fewlarge_partialViewing_high_bird4.png,mask_img/000000000731.png,training,q,w,219.85251060000155
V3,29,25,Female,Left,13,Training,2.0626762999454513,0.05,true,tree,tree,occlusion,low,mask,partial viewing,few large,Training_Stimulus\fewlarge_partialViewing_low_tree9.png,mask_img/000000003694.png,training,u,u,223.44626130000688
V3,29,25,Female,Left,14,Training,1.1774132999125868,0.05,false,building,bird,occlusion,control,mask,partial viewing,many small,Training_Stimulus\manysmall_partialViewing_control_building24.png,mask_img/000000004739.png,training,w,e,225.7118557000067
V3,29,25,Female,Left,15,Training,1.5584957000100985,0.1,true,building,building,occlusion,low,mask,partial viewing,few large,Training_Stimulus\fewlarge_partialViewing_low_building24.png,mask_img/000000002822.png,training,e,e,228.85252890002448
V3,29,25,Female,Left,16,Training,0.9482152999844402,0.025,true,building,building,occlusion,control,mask,partial viewing,few large,Training_Stimulus\fewlarge_partialViewing_control_building24.png,mask_img/000000000312.png,training,e,e,230.883745500003
V3,29,25,Female,Left,17,Training,1.016747299931012,0.1,true,building,building,occlusion,control,mask,partial viewing,few large,Training_Stimulus\fewlarge_partialViewing_control_building24.png,mask_img/000000000312.png,training,e,e,233.1976985000074
V3,29,25,Female,Left,18,Training,1.3868769999826327,0.05,false,person,cat,occlusion,high,mask,partial viewing,many small,Training_Stimulus\manysmall_partialViewing_high_person189.png,mask_img/000000006153.png,training,o,q,235.97896720003337
V3,29,25,Female,Left,19,Training,1.496596199925989,0.1,true,firehydrant,firehydrant,occlusion,high,mask,partial viewing,many small,Training_Stimulus\manysmall_partialViewing_high_firehydrant90.png,mask_img/000000006146.png,training,r,r,238.97889140003826
V3,29,25,Female,Left,20,Training,0.886883599916473,0.025,true,firehydrant,firehydrant,occlusion,low,mask,partial viewing,few large,Training_Stimulus\fewlarge_partialViewing_low_firehydrant90.png,mask_img/000000003225.png,training,r,r,241.33828909997828
V3,29,25,Female,Left,21,Training,1.28068029996939,0.05,true,bird,bird,occlusion,control,mask,partial viewing,few large,Training_Stimulus\fewlarge_partialViewing_control_bird4.png,mask_img/000000000109.png,training,w,w,244.11922950006556
V3,29,25,Female,Left,22,Training,0.9676992000313476,0.1,true,bird,bird,occlusion,control,mask,partial viewing,many small,Training_Stimulus\manysmall_partialViewing_control_bird4.png,mask_img/000000004642.png,training,w,w,246.3904271000065
V3,29,25,Female,Left,23,Training,1.7067014999920502,0.1,false,bus,building,occlusion,high,mask,partial viewing,few large,Training_Stimulus\fewlarge_partialViewing_high_bus180.png,mask_img/000000001053.png,training,e,i,249.35919920005836
V3,29,25,Female,Left,24,Training,1.212963700061664,0.025,false,banana,cat,occlusion,high,mask,partial viewing,few large,Training_Stimulus\fewlarge_partialViewing_high_banana454.png,mask_img/000000000690.png,training,o,p,251.96844460000284
V3,29,25,Female,Left,25,Training,1.0504957999801263,0.05,true,banana,banana,occlusion,control,mask,partial viewing,few large,Training_Stimulus\fewlarge_partialViewing_control_banana454.png,mask_img/000000000042.png,training,p,p,254.56226270005573
V3,29,25,Female,Left,26,Training,1.9740299000404775,0.1,true,building,building,occlusion,low,mask,partial viewing,many small,Training_Stimulus\manysmall_partialViewing_low_building24.png,mask_img/000000006489.png,training,e,e,258.048035099986
V3,29,25,Female,Left,27,Training,1.0244632000103593,0.05,true,person,person,occlusion,control,mask,partial viewing,few large,Training_Stimulus\fewlarge_partialViewing_control_person189.png,mask_img/000000000595.png,training,q,q,260.48548510007095
V3,29,25,Female,Left,28,Training,1.132303100079298,0.05,true,building,building,occlusion,control,mask,partial viewing,few large,Training_Stimulus\fewlarge_partialViewing_control_building24.png,mask_img/000000000312.png,training,e,e,262.7198347999947
V3,29,25,Female,Left,29,Training,1.3202325999736786,0.025,true,tree,tree,occlusion,control,mask,partial viewing,few large,Training_Stimulus\fewlarge_partialViewing_control_tree9.png,mask_img/000000000626.png,training,u,u,265.423003599979
V3,29,25,Female,Left,30,Training,0.9327002000063658,0.1,true,person,person,occlusion,control,mask,partial viewing,few large,Training_Stimulus\fewlarge_partialViewing_control_person189.png,mask_img/000000000595.png,training,q,q,267.877524200012
V3,29,25,Female,Left,31,Training,1.4934318999294192,0.025,true,building,building,occlusion,high,mask,partial viewing,few large,Training_Stimulus\fewlarge_partialViewing_high_building24.png,mask_img/000000000873.png,training,e,e,270.8618962999899
V3,29,25,Female,Left,32,Training,1.225274500087835,0.1,true,cat,cat,occlusion,control,mask,partial viewing,many small,Training_Stimulus\manysmall_partialViewing_control_cat432.png,mask_img/000000005105.png,training,o,o,273.22136950003915
V3,29,25,Female,Left,1,Block 1,1.393527299980633,0.025,true,tree,tree,occlusion,control,mask,partial viewing,many small,Stimulus\all_stim\occlusion\partialviewing\manysmall\control\manysmall_partialViewing_control_tree10.png,mask_img/000000040948.png,experiment,u,u,293.11179940006696
V3,29,25,Female,Left,2,Block 1,1.162899799994193,0.025,true,building,building,occlusion,low,mask,partial viewing,few large,Stimulus\all_stim\occlusion\partialviewing\fewlarge\low\fewlarge_partialViewing_low_building5.png,mask_img/000000025034.png,experiment,e,e,295.40752050001174
V3,29,25,Female,Left,3,Block 1,1.9583438000408933,0.025,true,bird,bird,occlusion,high,mask,partial viewing,few large,Stimulus\all_stim\occlusion\partialviewing\fewlarge\high\fewlarge_partialViewing_high_bird9.png,mask_img/000000014175.png,experiment,w,w,298.1113603999838
V3,29,25,Female,Left,4,Block 1,1.0815763000864536,0.1,false,bus,building,occlusion,low,mask,partial viewing,many small,Stimulus\all_stim\occlusion\partialviewing\manysmall\low\manysmall_partialViewing_low_bus7.png,mask_img/000000058822.png,experiment,e,i,299.96732529997826
V3,29,25,Female,Left,5,Block 1,1.7894507999299094,0.05,false,building,tree,occlusion,low,mask,partial viewing,many small,Stimulus\all_stim\occlusion\partialviewing\manysmall\low\manysmall_partialViewing_low_building8.png,mask_img/000000058073.png,experiment,u,e,302.7994511000579
V3,29,25,Female,Left,6,Block 1,2.5917703000595793,0.025,false,banana,bus,occlusion,high,mask,partial viewing,few large,Stimulus\all_stim\occlusion\partialviewing\fewlarge\high\fewlarge_partialViewing_high_banana1.png,mask_img/000000011754.png,experiment,i,p,306.23178010003176
V3,29,25,Female,Left,7,Block 1,1.3214001999003813,0.025,true,building,building,occlusion,control,mask,partial viewing,many small,Stimulus\all_stim\occlusion\partialviewing\manysmall\control\manysmall_partialViewing_control_building5.png,mask_img/000000036004.png,experiment,e,e,308.2396962000057
V3,29,25,Female,Left,8,Block 1,0.9256412000395358,0.025,true,person,person,occlusion,control,mask,partial viewing,many small,Stimulus\all_stim\occlusion\partialviewing\manysmall\control\manysmall_partialViewing_control_person2.png,mask_img/000000039971.png,experiment,q,q,309.98360420006793
V3,29,25,Female,Left,9,Block 1,1.0883179999655113,0.025,true,building,building,occlusion,high,mask,partial viewing,many small,Stimulus\all_stim\occlusion\partialviewing\manysmall\high\manysmall_partialViewing_high_building4.png,mask_img/000000046025.png,experiment,e,e,311.75154520000797
V3,29,25,Female,Left,10,Block 1,1.3549377999734133,0.025,true,bus,bus,occlusion,control,mask,partial viewing,many small,Stimulus\all_stim\occlusion\partialviewing\manysmall\control\manysmall_partialViewing_control_bus7.png,mask_img/000000037339.png,experiment,i,i,314.2155492999591
V3,29,25,Female,Left,11,Block 1,1.1548485999228433,0.05,false,firehydrant,tree,occlusion,high,mask,partial viewing,few large,Stimulus\all_stim\occlusion\partialviewing\fewlarge\high\fewlarge_partialViewing_high_firehydrant6.png,mask_img/000000019134.png,experiment,u,r,316.28050600003917
V3,29,25,Female,Left,12,Block 1,1.6359217000426725,0.025,false,bus,building,occlusion,low,mask,partial viewing,few large,Stimulus\all_stim\occlusion\partialviewing\fewlarge\low\fewlarge_partialViewing_low_bus9.png,mask_img/000000027005.png,experiment,e,i,318.5853965000715
V3,29,25,Female,Left,13,Block 1,2.0023571000201628,0.05,false,building,bus,occlusion,high,mask,partial viewing,many small,Stimulus\all_stim\occlusion\partialviewing\manysmall\high\manysmall_partialViewing_high_building4.png,mask_img/000000046025.png,experiment,i,e,321.5195729000261
V3,29,25,Female,Left,14,Block 1,1.7141635000007227,0.025,false,banana,building,occlusion,high,mask,partial viewing,many small,Stimulus\all_stim\occlusion\partialviewing\manysmall\high\manysmall_partialViewing_high_banana7.png,mask_img/000000043024.png,experiment,e,p,324.2313210000284
V3,29,25,Female,Left,15,Block 1,1.7104602000908926,0.05,true,bird,bird,occlusion,high,mask,partial viewing,many small,Stimulus\all_stim\occlusion\partialviewing\manysmall\high\manysmall_partialViewing_high_bird7.png,mask_img/000000044580.png,experiment,w,w,327.05563009995967
V3,29,25,Female,Left,16,Block 1,1.1031401000218466,0.05,true,person,person,occlusion,control,mask,partial viewing,few large,Stimulus\all_stim\occlusion\partialviewing\fewlarge\control\fewlarge_partialViewing_control_person3.png,mask_img/000000008920.png,experiment,q,q,329.1516000999836
V3,29,25,Female,Left,17,Block 1,2.8295567000750452,0.1,true,firehydrant,firehydrant,occlusion,control,mask,partial viewing,many small,Stimulus\all_stim\occlusion\partialviewing\manysmall\control\manysmall_partialViewing_control_firehydrant1.png,mask_img/000000039012.png,experiment,r,r,332.83159339998383
V3,29,25,Female,Left,18,Block 1,2.1626538999844342,0.05,true,bird,bird,occlusion,low,mask,partial viewing,many small,Stimulus\all_stim\occlusion\partialviewing\manysmall\low\manysmall_partialViewing_low_bird10.png,mask_img/000000055733.png,experiment,w,w,335.68831670004874
V3,29,25,Female,Left,19,Block 1,1.1535986999515444,0.025,true,banana,banana,occlusion,control,mask,partial viewing,few large,Stimulus\all_stim\occlusion\partialviewing\fewlarge\control\fewlarge_partialViewing_control_banana8.png,mask_img/000000000690.png,experiment,p,p,337.7193882999709
V3,29,25,Female,Left,20,Block 1,2.141562500037253,0.025,true,tree,tree,occlusion,low,mask,partial viewing,few large,Stimulus\all_stim\occlusion\partialviewing\fewlarge\low\fewlarge_partialViewing_low_tree8.png,mask_img/000000032918.png,experiment,u,u,340.62380329996813
V3,29,25,Female,Left,21,Block 1,1.1353408000431955,0.05,true,cat,cat,occlusion,control,mask,partial viewing,many small,Stimulus\all_stim\occlusion\partialviewing\manysmall\control\manysmall_partialViewing_control_cat9.png,mask_img/000000038862.png,experiment,o,o,342.7033815999748
V3,29,25,Female,Left,22,Block 1,0.9357278000097722,0.025,true,person,person,occlusion,control,mask,partial viewing,many small,Stimulus\all_stim\occlusion\partialviewing\manysmall\control\manysmall_partialViewing_control_person4.png,mask_img/000000040042.png,experiment,q,q,344.487382399966
V3,29,25,Female,Left,23,Block 1,1.3670537000289187,0.025,true,tree,tree,occlusion,high,mask,partial viewing,many small,Stimulus\all_stim\occlusion\partialviewing\manysmall\high\manysmall_partialViewing_high_tree4.png,mask_img/000000053143.png,experiment,u,u,346.83965740003623
V3,29,25,Female,Left,24,Block 1,1.134596300078556,0.1,true,banana,banana,occlusion,control,mask,partial viewing,few large,Stimulus\all_stim\occlusion\partialviewing\fewlarge\control\fewlarge_partialViewing_control_banana3.png,mask_img/000000000394.png,experiment,p,p,348.951981900027
V3,29,25,Female,Left,25,Block 1,1.2024921999545768,0.1,true,cat,cat,occlusion,control,mask,partial viewing,many small,Stimulus\all_stim\occlusion\partialviewing\manysmall\control\manysmall_partialViewing_control_cat9.png,mask_img/000000038862.png,experiment,o,o,351.2392703000223
V3,29,25,Female,Left,26,Block 1,0.8884715000167489,0.025,true,cat,cat,occlusion,high,mask,partial viewing,many small,Stimulus\all_stim\occlusion\partialviewing\manysmall\high\manysmall_partialViewing_high_cat1.png,mask_img/000000048664.png,experiment,o,o,352.88966240000445
V3,29,25,Female,Left,27,Block 1,1.0301770999794826,0.1,true,cat,cat,occlusion,high,mask,partial viewing,few large,Stimulus\all_stim\occlusion\partialviewing\fewlarge\high\fewlarge_partialViewing_high_cat3.png,mask_img/000000017356.png,experiment,o,o,354.62363869999535
V3,29,25,Female,Left,28,Block 1,1.2328790999017656,0.05,true,bus,bus,occlusion,control,mask,partial viewing,few large,Stimulus\all_stim\occlusion\partialviewing\fewlarge\control\fewlarge_partialViewing_control_bus3.png,mask_img/000000005418.png,experiment,i,i,356.57529209996574
V3,29,25,Female,Left,29,Block 1,1.387719599995762,0.05,true,building,building,occlusion,control,mask,partial viewing,many small,Stimulus\all_stim\occlusion\partialviewing\manysmall\control\manysmall_partialViewing_control_building6.png,mask_img/000000036006.png,experiment,e,e,358.81534540001303
V3,29,25,Female,Left,30,Block 1,1.3377713999943808,0.05,true,building,building,occlusion,low,mask,partial viewing,many small,Stimulus\all_stim\occlusion\partialviewing\manysmall\low\manysmall_partialViewing_low_building3.png,mask_img/000000057646.png,experiment,e,e,360.8554377000546
V3,29,25,Female,Left,31,Block 1,1.5574825999792665,0.05,true,bird,bird,occlusion,control,mask,partial viewing,few large,Stimulus\all_stim\occlusion\partialviewing\fewlarge\control\fewlarge_partialViewing_control_bird3.png,mask_img/000000001810.png,experiment,w,w,363.1594548000721
V3,29,25,Female,Left,32,Block 1,2.3914032999891788,0.05,true,firehydrant,firehydrant,occlusion,low,mask,partial viewing,few large,Stimulus\all_stim\occlusion\partialviewing\fewlarge\low\fewlarge_partialViewing_low_firehydrant6.png,mask_img/000000028842.png,experiment,r,r,366.24099520000163
V3,29,25,Female,Left,33,Block 1,0.9317408000351861,0.05,true,person,person,occlusion,low,mask,partial viewing,few large,Stimulus\all_stim\occlusion\partialviewing\fewlarge\low\fewlarge_partialViewing_low_person8.png,mask_img/000000030611.png,experiment,q,q,368.12155799998436
V3,29,25,Female,Left,34,Block 1,1.1476580000016838,0.05,false,bird,cat,occlusion,high,mask,partial viewing,many small,Stimulus\all_stim\occlusion\partialviewing\manysmall\high\manysmall_partialViewing_high_bird2.png,mask_img/000000044117.png,experiment,o,w,370.09538920002524
V3,29,25,Female,Left,35,Block 1,1.5500724000157788,0.025,true,building,building,occlusion,control,mask,partial viewing,many small,Stimulus\all_stim\occlusion\partialviewing\manysmall\control\manysmall_partialViewing_control_building4.png,mask_img/000000035985.png,experiment,e,e,372.5836394999642
V3,29,25,Female,Left,36,Block 1,1.449031600030139,0.05,false,banana,cat,occlusion,high,mask,partial viewing,few large,Stimulus\all_stim\occlusion\partialviewing\fewlarge\high\fewlarge_partialViewing_high_banana2.png,mask_img/000000012179.png,experiment,o,p,374.8636192000704
V3,29,25,Female,Left,37,Block 1,1.0926766999764368,0.1,true,banana,banana,occlusion,low,mask,partial viewing,many small,Stimulus\all_stim\occlusion\partialviewing\manysmall\low\manysmall_partialViewing_low_banana6.png,mask_img/000000055460.png,experiment,p,p,377.0077119000489
V3,29,25,Female,Left,38,Block 1,0.8259843999985605,0.05,true,person,person,occlusion,control,mask,partial viewing,few large,Stimulus\all_stim\occlusion\partialviewing\fewlarge\control\fewlarge_partialViewing_control_person7.png,mask_img/000000009648.png,experiment,q,q,378.6715838999953
V3,29,25,Female,Left,39,Block 1,1.0694127000169829,0.025,true,banana,banana,occlusion,high,mask,partial viewing,few large,Stimulus\all_stim\occlusion\partialviewing\fewlarge\high\fewlarge_partialViewing_high_banana6.png,mask_img/000000012548.png,experiment,p,p,380.59132640005555
V3,29,25,Female,Left,40,Block 1,1.3934638999635354,0.025,true,tree,tree,occlusion,high,mask,partial viewing,few large,Stimulus\all_stim\occlusion\partialviewing\fewlarge\high\fewlarge_partialViewing_high_tree4.png,mask_img/000000021981.png,experiment,u,u,382.82381139998324
V3,29,25,Female,Left,41,Block 1,1.0325989000266418,0.1,true,cat,cat,occlusion,control,mask,partial viewing,few large,Stimulus\all_stim\occlusion\partialviewing\fewlarge\control\fewlarge_partialViewing_control_cat4.png,mask_img/000000006842.png,experiment,o,o,384.7772588999942
V3,29,25,Female,Left,42,Block 1,0.8696012999862432,0.05,true,cat,cat,occlusion,low,mask,partial viewing,few large,Stimulus\all_stim\occlusion\partialviewing\fewlarge\low\fewlarge_partialViewing_low_cat5.png,mask_img/000000027704.png,experiment,o,o,386.7355666999938
V3,29,25,Female,Left,43,Block 1,2.0826137999538332,0.05,true,building,building,occlusion,low,mask,partial viewing,few large,Stimulus\all_stim\occlusion\partialviewing\fewlarge\low\fewlarge_partialViewing_low_building5.png,mask_img/000000025034.png,experiment,e,e,389.6394566000672
V3,29,25,Female,Left,44,Block 1,1.3592097000218928,0.025,true,building,building,occlusion,control,mask,partial viewing,many small,Stimulus\all_stim\occlusion\partialviewing\manysmall\control\manysmall_partialViewing_control_building2.png,mask_img/000000035864.png,experiment,e,e,392.08754870004486
V3,29,25,Female,Left,45,Block 1,1.0106026999419555,0.025,true,person,person,occlusion,high,mask,partial viewing,few large,Stimulus\all_stim\occlusion\partialviewing\fewlarge\high\fewlarge_partialViewing_high_person10.png,mask_img/000000019927.png,experiment,q,q,393.84771020000335
V3,29,25,Female,Left,46,Block 1,1.2497426000190899,0.025,true,building,building,occlusion,low,mask,partial viewing,many small,Stimulus\all_stim\occlusion\partialviewing\manysmall\low\manysmall_partialViewing_low_building10.png,mask_img/000000057068.png,experiment,e,e,396.04154490004294
V3,29,25,Female,Left,47,Block 1,1.1430944999447092,0.05,true,cat,cat,occlusion,high,mask,partial viewing,few large,Stimulus\all_stim\occlusion\partialviewing\fewlarge\high\fewlarge_partialViewing_high_cat6.png,mask_img/000000017476.png,experiment,o,o,398.13554200006183
V3,29,25,Female,Left,48,Block 1,1.3622844000346959,0.1,true,building,building,occlusion,low,mask,partial viewing,few large,Stimulus\all_stim\occlusion\partialviewing\fewlarge\low\fewlarge_partialViewing_low_building4.png,mask_img/000000024912.png,experiment,e,e,400.5277706000488
V3,29,25,Female,Left,49,Block 1,0.9412939000176266,0.05,true,person,person,occlusion,control,mask,partial viewing,many small,Stimulus\all_stim\occlusion\partialviewing\manysmall\control\manysmall_partialViewing_control_person2.png,mask_img/000000039971.png,experiment,q,q,402.5755264000036
V3,29,25,Female,Left,50,Block 1,1.0026331000262871,0.1,true,building,building,occlusion,high,mask,partial viewing,few large,Stimulus\all_stim\occlusion\partialviewing\fewlarge\high\fewlarge_partialViewing_high_building9.png,mask_img/000000015619.png,experiment,e,e,404.36128690000623
V3,29,25,Female,Left,51,Block 1,1.284411699976772,0.1,true,tree,tree,occlusion,low,mask,partial viewing,few large,Stimulus\all_stim\occlusion\partialviewing\fewlarge\low\fewlarge_partialViewing_low_tree6.png,mask_img/000000032720.png,experiment,u,u,406.4175685000373
V3,29,25,Female,Left,52,Block 1,1.0741796999936923,0.05,true,bus,bus,occlusion,control,mask,partial viewing,many small,Stimulus\all_stim\occlusion\partialviewing\manysmall\control\manysmall_partialViewing_control_bus1.png,mask_img/000000036255.png,experiment,i,i,408.56764340004884
V3,29,25,Female,Left,53,Block 1,1.0278088999912143,0.025,false,firehydrant,cat,occlusion,high,mask,partial viewing,few large,Stimulus\all_stim\occlusion\partialviewing\fewlarge\high\fewlarge_partialViewing_high_firehydrant1.png,mask_img/000000017944.png,experiment,o,r,410.45549640001263
V3,29,25,Female,Left,54,Block 1,0.7778478000545874,0.025,true,banana,banana,occlusion,low,mask,partial viewing,many small,Stimulus\all_stim\occlusion\partialviewing\manysmall\low\manysmall_partialViewing_low_banana8.png,mask_img/000000055630.png,experiment,p,p,412.07973700005095
V3,29,25,Female,Left,55,Block 1,0.8380930999992415,0.025,true,banana,banana,occlusion,control,mask,partial viewing,few large,Stimulus\all_stim\occlusion\partialviewing\fewlarge\control\fewlarge_partialViewing_control_banana5.png,mask_img/000000000459.png,experiment,p,p,413.6873813000275
V3,29,25,Female,Left,56,Block 1,1.1498791000340134,0.025,true,building,building,occlusion,low,mask,partial viewing,many small,Stimulus\all_stim\occlusion\partialviewing\manysmall\low\manysmall_partialViewing_low_building1.png,mask_img/000000056716.png,experiment,e,e,415.71959850005805
V3,29,25,Female,Left,57,Block 1,0.844534800038673,0.05,true,person,person,occlusion,low,mask,partial viewing,few large,Stimulus\all_stim\occlusion\partialviewing\fewlarge\low\fewlarge_partialViewing_low_person3.png,mask_img/000000029506.png,experiment,q,q,417.7115938999923
V3,29,25,Female,Left,58,Block 1,1.0149578999262303,0.025,true,cat,cat,occlusion,high,mask,partial viewing,many small,Stimulus\all_stim\occlusion\partialviewing\manysmall\high\manysmall_partialViewing_high_cat3.png,mask_img/000000049254.png,experiment,o,o,419.58343680005055
V3,29,25,Female,Left,59,Block 1,0.7572625000029802,0.1,true,person,person,occlusion,high,mask,partial viewing,few large,Stimulus\all_stim\occlusion\partialviewing\fewlarge\high\fewlarge_partialViewing_high_person7.png,mask_img/000000020421.png,experiment,q,q,421.02351470000576
V3,29,25,Female,Left,60,Block 1,0.5640472999075428,0.05,true,person,person,occlusion,low,mask,partial viewing,few large,Stimulus\all_stim\occlusion\partialviewing\fewlarge\low\fewlarge_partialViewing_low_person5.png,mask_img/000000029964.png,experiment,q,q,422.29970299999695
V3,29,25,Female,Left,61,Block 1,1.072598100057803,0.1,true,building,building,occlusion,control,mask,partial viewing,many small,Stimulus\all_stim\occlusion\partialviewing\manysmall\control\manysmall_partialViewing_control_building7.png,mask_img/000000036029.png,experiment,e,e,424.47237960004713
V3,29,25,Female,Left,62,Block 1,1.4901395000051707,0.1,true,firehydrant,firehydrant,occlusion,low,mask,partial viewing,many small,Stimulus\all_stim\occlusion\partialviewing\manysmall\low\manysmall_partialViewing_low_firehydrant2.png,mask_img/000000060548.png,experiment,r,r,427.1118312999606
V3,29,25,Female,Left,63,Block 1,1.4603056999621913,0.1,true,tree,tree,occlusion,low,mask,partial viewing,many small,Stimulus\all_stim\occlusion\partialviewing\manysmall\low\manysmall_partialViewing_low_tree1.png,mask_img/000000062690.png,experiment,u,u,429.2316098000156
V3,29,25,Female,Left,64,Block 1,0.8840211000060663,0.05,true,cat,cat,occlusion,low,mask,partial viewing,many small,Stimulus\all_stim\occlusion\partialviewing\manysmall\low\manysmall_partialViewing_low_cat7.png,mask_img/000000060158.png,experiment,o,o,430.91247250000015
V3,29,25,Female,Left,65,Block 1,0.9275873000733554,0.1,false,firehydrant,cat,occlusion,high,mask,partial viewing,many small,Stimulus\all_stim\occlusion\partialviewing\manysmall\high\manysmall_partialViewing_high_firehydrant1.png,mask_img/000000049987.png,experiment,o,r,432.551869399962
V3,29,25,Female,Left,66,Block 1,1.0191818999592215,0.025,true,tree,tree,occlusion,low,mask,partial viewing,few large,Stimulus\all_stim\occlusion\partialviewing\fewlarge\low\fewlarge_partialViewing_low_tree3.png,mask_img/000000031717.png,experiment,u,u,434.6093998000724
V3,29,25,Female,Left,67,Block 1,0.5716623000334948,0.1,true,tree,tree,occlusion,control,mask,partial viewing,few large,Stimulus\all_stim\occlusion\partialviewing\fewlarge\control\fewlarge_partialViewing_control_tree9.png,mask_img/000000011701.png,experiment,u,u,435.9867555999663
V3,29,25,Female,Left,68,Block 1,0.5406206999905407,0.05,true,tree,tree,occlusion,high,mask,partial viewing,few large,Stimulus\all_stim\occlusion\partialviewing\fewlarge\high\fewlarge_partialViewing_high_tree8.png,mask_img/000000022355.png,experiment,u,u,437.6385837000562
V3,29,25,Female,Left,69,Block 1,1.3173141999868676,0.025,true,bird,bird,occlusion,low,mask,partial viewing,few large,Stimulus\all_stim\occlusion\partialviewing\fewlarge\low\fewlarge_partialViewing_low_bird8.png,mask_img/000000024404.png,experiment,w,w,440.0716926000314
V3,29,25,Female,Left,70,Block 1,0.8132896999595687,0.025,true,building,building,occlusion,high,mask,partial viewing,many small,Stimulus\all_stim\occlusion\partialviewing\manysmall\high\manysmall_partialViewing_high_building9.png,mask_img/000000046345.png,experiment,e,e,441.6795169999823
V3,29,25,Female,Left,71,Block 1,1.1292267999378964,0.025,true,cat,cat,occlusion,low,mask,partial viewing,many small,Stimulus\all_stim\occlusion\partialviewing\manysmall\low\manysmall_partialViewing_low_cat3.png,mask_img/000000059442.png,experiment,o,o,443.69564310007263
V3,29,25,Female,Left,72,Block 1,1.097607500036247,0.1,true,bus,bus,occlusion,control,mask,partial viewing,few large,Stimulus\all_stim\occlusion\partialviewing\fewlarge\control\fewlarge_partialViewing_control_bus8.png,mask_img/000000006153.png,experiment,i,i,445.77548309997655
V3,29,25,Female,Left,73,Block 1,1.3161729000275955,0.05,true,bird,bird,occlusion,control,mask,partial viewing,few large,Stimulus\all_stim\occlusion\partialviewing\fewlarge\control\fewlarge_partialViewing_control_bird10.png,mask_img/000000001053.png,experiment,w,w,447.87154229998123
V3,29,25,Female,Left,74,Block 1,0.5708656000206247,0.05,true,bird,bird,occlusion,control,mask,partial viewing,many small,Stimulus\all_stim\occlusion\partialviewing\manysmall\control\manysmall_partialViewing_control_bird2.png,mask_img/000000034455.png,experiment,w,w,449.5762767000124
V3,29,25,Female,Left,75,Block 1,1.2429529000073671,0.05,true,bus,bus,occlusion,high,mask,partial viewing,few large,Stimulus\all_stim\occlusion\partialviewing\fewlarge\high\fewlarge_partialViewing_high_bus9.png,mask_img/000000016764.png,experiment,i,i,451.9035753000062
V3,29,25,Female,Left,76,Block 1,0.7506709999870509,0.05,true,banana,banana,occlusion,control,mask,partial viewing,many small,Stimulus\all_stim\occlusion\partialviewing\manysmall\control\manysmall_partialViewing_control_banana1.png,mask_img/000000033073.png,experiment,p,p,453.56760349997785
V3,29,25,Female,Left,77,Block 1,0.9143459999468178,0.025,true,bus,bus,occlusion,control,mask,partial viewing,many small,Stimulus\all_stim\occlusion\partialviewing\manysmall\control\manysmall_partialViewing_control_bus5.png,mask_img/000000037140.png,experiment,i,i,455.31166500004474
V3,29,25,Female,Left,78,Block 1,0.824279599939473,0.025,true,bus,bus,occlusion,high,mask,partial viewing,few large,Stimulus\all_stim\occlusion\partialviewing\fewlarge\high\fewlarge_partialViewing_high_bus2.png,mask_img/000000015862.png,experiment,i,i,457.0156344000716
V3,29,25,Female,Left,79,Block 1,0.6324819999281317,0.025,true,bus,bus,occlusion,control,mask,partial viewing,few large,Stimulus\all_stim\occlusion\partialviewing\fewlarge\control\fewlarge_partialViewing_control_bus6.png,mask_img/000000005862.png,experiment,i,i,458.399514800054
V3,29,25,Female,Left,80,Block 1,1.067387199960649,0.05,true,tree,tree,occlusion,high,mask,partial viewing,few large,Stimulus\all_stim\occlusion\partialviewing\fewlarge\high\fewlarge_partialViewing_high_tree5.png,mask_img/000000022102.png,experiment,u,u,460.2154831000371
V3,29,25,Female,Left,81,Block 1,1.4692958999658003,0.025,false,firehydrant,building,occlusion,low,mask,partial viewing,few large,Stimulus\all_stim\occlusion\partialviewing\fewlarge\low\fewlarge_partialViewing_low_firehydrant4.png,mask_img/000000028671.png,experiment,e,r,462.58363650005776
V3,29,25,Female,Left,82,Block 1,1.0147137000458315,0.05,true,tree,tree,occlusion,low,mask,partial viewing,many small,Stimulus\all_stim\occlusion\partialviewing\manysmall\low\manysmall_partialViewing_low_tree4.png,mask_img/000000063337.png,experiment,u,u,464.3515716000693
V3,29,25,Female,Left,83,Block 1,0.8092595000052825,0.025,true,bus,bus,occlusion,high,mask,partial viewing,few large,Stimulus\all_stim\occlusion\partialviewing\fewlarge\high\fewlarge_partialViewing_high_bus6.png,mask_img/000000015987.png,experiment,i,i,466.1614489000058
V3,29,25,Female,Left,84,Block 1,0.7557530000340194,0.05,false,bird,cat,occlusion,high,mask,partial viewing,many small,Stimulus\all_stim\occlusion\partialviewing\manysmall\high\manysmall_partialViewing_high_bird3.png,mask_img/000000044123.png,experiment,o,w,467.8394399000099
V3,29,25,Female,Left,85,Block 1,0.5810067999409512,0.1,true,banana,banana,occlusion,control,mask,partial viewing,few large,Stimulus\all_stim\occlusion\partialviewing\fewlarge\control\fewlarge_partialViewing_control_banana2.png,mask_img/000000000312.png,experiment,p,p,469.4989465000108
V3,29,25,Female,Left,86,Block 1,1.2924943000543863,0.05,true,building,building,occlusion,low,mask,partial viewing,many small,Stimulus\all_stim\occlusion\partialviewing\manysmall\low\manysmall_partialViewing_low_building6.png,mask_img/000000057979.png,experiment,e,e,471.4635202999925
V3,29,25,Female,Left,87,Block 1,0.6336886000353843,0.1,true,building,building,occlusion,control,mask,partial viewing,many small,Stimulus\all_stim\occlusion\partialviewing\manysmall\control\manysmall_partialViewing_control_building3.png,mask_img/000000035979.png,experiment,e,e,472.8668287000619
V3,29,25,Female,Left,88,Block 1,0.5100031000329182,0.1,false,tree,building,occlusion,low,mask,partial viewing,few large,Stimulus\all_stim\occlusion\partialviewing\fewlarge\low\fewlarge_partialViewing_low_tree3.png,mask_img/000000031717.png,experiment,e,u,474.4671595999971
V3,29,25,Female,Left,89,Block 1,1.0144239000510424,0.1,true,banana,banana,occlusion,low,mask,partial viewing,many small,Stimulus\all_stim\occlusion\partialviewing\manysmall\low\manysmall_partialViewing_low_banana10.png,mask_img/000000054723.png,experiment,p,p,476.3115877000382
V3,29,25,Female,Left,90,Block 1,0.8213433000491932,0.025,true,person,person,occlusion,low,mask,partial viewing,few large,Stimulus\all_stim\occlusion\partialviewing\fewlarge\low\fewlarge_partialViewing_low_person9.png,mask_img/000000031017.png,experiment,q,q,477.83186380006373
V3,29,25,Female,Left,91,Block 1,0.8702364000491798,0.1,true,person,person,occlusion,control,mask,partial viewing,few large,Stimulus\all_stim\occlusion\partialviewing\fewlarge\control\fewlarge_partialViewing_control_person4.png,mask_img/000000009178.png,experiment,q,q,479.35951350000687
V3,29,25,Female,Left,92,Block 1,1.1648051999509335,0.1,true,bus,bus,occlusion,high,mask,partial viewing,few large,Stimulus\all_stim\occlusion\partialviewing\fewlarge\high\fewlarge_partialViewing_high_bus10.png,mask_img/000000015733.png,experiment,i,i,481.63962769997306
V3,29,25,Female,Left,93,Block 1,1.154503499972634,0.1,false,bird,cat,occlusion,high,mask,partial viewing,many small,Stimulus\all_stim\occlusion\partialviewing\manysmall\high\manysmall_partialViewing_high_bird3.png,mask_img/000000044123.png,experiment,o,w,483.64768170006573
V3,29,25,Female,Left,94,Block 1,1.5468545999610797,0.025,true,firehydrant,firehydrant,occlusion,low,mask,partial viewing,few large,Stimulus\all_stim\occlusion\partialviewing\fewlarge\low\fewlarge_partialViewing_low_firehydrant2.png,mask_img/000000028517.png,experiment,r,r,486.0156233999878
V3,29,25,Female,Left,95,Block 1,0.8629922999534756,0.025,true,person,person,occlusion,low,mask,partial viewing,many small,Stimulus\all_stim\occlusion\partialviewing\manysmall\low\manysmall_partialViewing_low_person5.png,mask_img/000000062193.png,experiment,q,q,487.6316192999948
V3,29,25,Female,Left,96,Block 1,0.8207942999433726,0.025,true,banana,banana,occlusion,low,mask,partial viewing,many small,Stimulus\all_stim\occlusion\partialviewing\manysmall\low\manysmall_partialViewing_low_banana2.png,mask_img/000000054759.png,experiment,p,p,489.1916751000099
V3,29,25,Female,Left,97,Block 1,0.6376041999319568,0.1,true,banana,banana,occlusion,high,mask,partial viewing,few large,Stimulus\all_stim\occlusion\partialviewing\fewlarge\high\fewlarge_partialViewing_high_banana4.png,mask_img/000000012377.png,experiment,p,p,490.9247325999895
V3,29,25,Female,Left,98,Block 1,1.3621416999958456,0.1,true,tree,tree,occlusion,low,mask,partial viewing,many small,Stimulus\all_stim\occlusion\partialviewing\manysmall\low\manysmall_partialViewing_low_tree8.png,mask_img/000000063804.png,experiment,u,u,493.3113975999877
V3,29,25,Female,Left,99,Block 1,0.8519450000021607,0.1,false,firehydrant,cat,occlusion,high,mask,partial viewing,many small,Stimulus\all_stim\occlusion\partialviewing\manysmall\high\manysmall_partialViewing_high_firehydrant8.png,mask_img/000000050794.png,experiment,o,r,495.06380900007207
V3,29,25,Female,Left,100,Block 1,1.1396692000562325,0.1,true,tree,tree,occlusion,high,mask,partial viewing,many small,Stimulus\all_stim\occlusion\partialviewing\manysmall\high\manysmall_partialViewing_high_tree8.png,mask_img/000000054334.png,experiment,u,u,497.1515838999767
V3,29,25,Female,Left,101,Block 1,1.0147934999549761,0.025,false,bird,cat,occlusion,low,mask,partial viewing,many small,Stimulus\all_stim\occlusion\partialviewing\manysmall\low\manysmall_partialViewing_low_bird8.png,mask_img/000000056137.png,experiment,o,w,499.0153691000305
V3,29,25,Female,Left,102,Block 1,0.8136127999750897,0.025,true,person,person,occlusion,control,mask,partial viewing,many small,Stimulus\all_stim\occlusion\partialviewing\manysmall\control\manysmall_partialViewing_control_person1.png,mask_img/000000039656.png,experiment,q,q,500.6394409000641
V3,29,25,Female,Left,103,Block 1,1.1286527999909595,0.05,true,bus,bus,occlusion,low,mask,partial viewing,many small,Stimulus\all_stim\occlusion\partialviewing\manysmall\low\manysmall_partialViewing_low_bus8.png,mask_img/000000058873.png,experiment,i,i,502.8395904999925
V3,29,25,Female,Left,104,Block 1,1.5056969999568537,0.1,true,firehydrant,firehydrant,occlusion,low,mask,partial viewing,few large,Stimulus\all_stim\occlusion\partialviewing\fewlarge\low\fewlarge_partialViewing_low_firehydrant8.png,mask_img/000000028988.png,experiment,r,r,505.23186569998506
V3,29,25,Female,Left,105,Block 1,0.9530202000169083,0.1,false,banana,person,occlusion,high,mask,partial viewing,few large,Stimulus\all_stim\occlusion\partialviewing\fewlarge\high\fewlarge_partialViewing_high_banana2.png,mask_img/000000012179.png,experiment,q,p,507.319481399958
V3,29,25,Female,Left,106,Block 1,1.340134899946861,0.05,true,tree,tree,occlusion,low,mask,partial viewing,few large,Stimulus\all_stim\occlusion\partialviewing\fewlarge\low\fewlarge_partialViewing_low_tree4.png,mask_img/000000032364.png,experiment,u,u,509.5355237000622
V3,29,25,Female,Left,107,Block 1,0.9085115999914706,0.1,true,bus,bus,occlusion,control,mask,partial viewing,many small,Stimulus\all_stim\occlusion\partialviewing\manysmall\control\manysmall_partialViewing_control_bus1.png,mask_img/000000036255.png,experiment,i,i,511.46366999996826
V3,29,25,Female,Left,108,Block 1,0.6923189000226557,0.1,true,bus,bus,occlusion,control,mask,partial viewing,few large,Stimulus\all_stim\occlusion\partialviewing\fewlarge\control\fewlarge_partialViewing_control_bus5.png,mask_img/000000005615.png,experiment,i,i,513.2793998999987
V3,29,25,Female,Left,109,Block 1,0.8050543001154438,0.025,true,banana,banana,occlusion,high,mask,partial viewing,many small,Stimulus\all_stim\occlusion\partialviewing\manysmall\high\manysmall_partialViewing_high_banana2.png,mask_img/000000042408.png,experiment,p,p,514.7755273999646
V3,29,25,Female,Left,110,Block 1,0.6231346999993548,0.1,true,banana,banana,occlusion,control,mask,partial viewing,many small,Stimulus\all_stim\occlusion\partialviewing\manysmall\control\manysmall_partialViewing_control_banana1.png,mask_img/000000033073.png,experiment,p,p,516.2660170999588
V3,29,25,Female,Left,111,Block 1,1.202530000009574,0.05,true,cat,cat,occlusion,control,mask,partial viewing,few large,Stimulus\all_stim\occlusion\partialviewing\fewlarge\control\fewlarge_partialViewing_control_cat2.png,mask_img/000000006489.png,experiment,o,o,518.3836388000054
V3,29,25,Female,Left,112,Block 1,1.2660193999763578,0.025,false,person,tree,occlusion,high,mask,partial viewing,many small,Stimulus\all_stim\occlusion\partialviewing\manysmall\high\manysmall_partialViewing_high_person8.png,mask_img/000000052606.png,experiment,u,q,520.6958242000546
V3,29,25,Female,Left,113,Block 1,1.0772861000150442,0.05,true,person,person,occlusion,low,mask,partial viewing,many small,Stimulus\all_stim\occlusion\partialviewing\manysmall\low\manysmall_partialViewing_low_person7.png,mask_img/000000062350.png,experiment,q,q,522.6475630999776
V3,29,25,Female,Left,114,Block 1,0.9325420999666676,0.025,false,tree,person,occlusion,high,mask,partial viewing,few large,Stimulus\all_stim\occlusion\partialviewing\fewlarge\high\fewlarge_partialViewing_high_tree6.png,mask_img/000000022142.png,experiment,q,u,524.519752799999
V3,29,25,Female,Left,115,Block 1,1.3200912999454886,0.025,true,tree,tree,occlusion,control,mask,partial viewing,few large,Stimulus\all_stim\occlusion\partialviewing\fewlarge\control\fewlarge_partialViewing_control_tree4.png,mask_img/000000010969.png,experiment,u,u,526.767680900055
V3,29,25,Female,Left,116,Block 1,1.4747438000049442,0.05,true,bird,bird,occlusion,high,mask,partial viewing,few large,Stimulus\all_stim\occlusion\partialviewing\fewlarge\high\fewlarge_partialViewing_high_bird9.png,mask_img/000000014175.png,experiment,w,w,529.3276417000452
V3,29,25,Female,Left,117,Block 1,1.2149970000609756,0.025,true,cat,cat,occlusion,low,mask,partial viewing,few large,Stimulus\all_stim\occlusion\partialviewing\fewlarge\low\fewlarge_partialViewing_low_cat7.png,mask_img/000000027890.png,experiment,o,o,531.3114317000145
V3,29,25,Female,Left,118,Block 1,0.7092754999175668,0.05,true,cat,cat,occlusion,low,mask,partial viewing,few large,Stimulus\all_stim\occlusion\partialviewing\fewlarge\low\fewlarge_partialViewing_low_cat4.png,mask_img/000000027675.png,experiment,o,o,532.687646000064
V3,29,25,Female,Left,119,Block 1,1.011720500071533,0.1,true,bird,bird,occlusion,high,mask,partial viewing,many small,Stimulus\all_stim\occlusion\partialviewing\manysmall\high\manysmall_partialViewing_high_bird9.png,mask_img/000000044946.png,experiment,w,w,534.55129209999
V3,29,25,Female,Left,120,Block 1,0.6988067999482155,0.05,true,banana,banana,occlusion,control,mask,partial viewing,few large,Stimulus\all_stim\occlusion\partialviewing\fewlarge\control\fewlarge_partialViewing_control_banana6.png,mask_img/000000000595.png,experiment,p,p,536.0332890000427
V3,29,25,Female,Left,121,Block 1,1.4901051999768242,0.05,true,firehydrant,firehydrant,occlusion,low,mask,partial viewing,many small,Stimulus\all_stim\occlusion\partialviewing\manysmall\low\manysmall_partialViewing_low_firehydrant5.png,mask_img/000000060623.png,experiment,r,r,538.5517388000153
V3,29,25,Female,Left,122,Block 1,0.8790235999040306,0.05,true,banana,banana,occlusion,low,mask,partial viewing,many small,Stimulus\all_stim\occlusion\partialviewing\manysmall\low\manysmall_partialViewing_low_banana8.png,mask_img/000000055630.png,experiment,p,p,540.4716397000011
V3,29,25,Female,Left,123,Block 1,0.9388461000053212,0.05,true,bird,bird,occlusion,control,mask,partial viewing,many small,Stimulus\all_stim\occlusion\partialviewing\manysmall\control\manysmall_partialViewing_control_bird10.png,mask_img/000000034304.png,experiment,w,w,542.3753935999703
V3,29,25,Female,Left,124,Block 1,0.9593768999911845,0.025,false,cat,person,occlusion,high,mask,partial viewing,few large,Stimulus\all_stim\occlusion\partialviewing\fewlarge\high\fewlarge_partialViewing_high_cat7.png,mask_img/000000017580.png,experiment,q,o,544.3514628000557
V3,29,25,Female,Left,125,Block 1,1.1634834000142291,0.05,true,bus,bus,occlusion,low,mask,partial viewing,many small,Stimulus\all_stim\occlusion\partialviewing\manysmall\low\manysmall_partialViewing_low_bus6.png,mask_img/000000058815.png,experiment,i,i,546.5278318000492
V3,29,25,Female,Left,126,Block 1,1.2857767000095919,0.05,true,building,building,occlusion,control,mask,partial viewing,few large,Stimulus\all_stim\occlusion\partialviewing\fewlarge\control\fewlarge_partialViewing_control_building2.png,mask_img/000000003483.png,experiment,e,e,548.511780800065
V3,29,25,Female,Left,127,Block 1,1.1065753999864683,0.1,true,tree,tree,occlusion,high,mask,partial viewing,few large,Stimulus\all_stim\occlusion\partialviewing\fewlarge\high\fewlarge_partialViewing_high_tree1.png,mask_img/000000021206.png,experiment,u,u,550.3199117999757
V3,29,25,Female,Left,128,Block 1,0.9356814000057057,0.025,true,tree,tree,occlusion,control,mask,partial viewing,few large,Stimulus\all_stim\occlusion\partialviewing\fewlarge\control\fewlarge_partialViewing_control_tree3.png,mask_img/000000010566.png,experiment,u,u,552.3913709999761
V3,29,25,Female,Left,129,Block 1,1.591206599958241,0.025,true,firehydrant,firehydrant,occlusion,low,mask,partial viewing,many small,Stimulus\all_stim\occlusion\partialviewing\manysmall\low\manysmall_partialViewing_low_firehydrant3.png,mask_img/000000060572.png,experiment,r,r,554.9676446999656
V3,29,25,Female,Left,130,Block 1,1.0864657999482006,0.05,true,tree,tree,occlusion,control,mask,partial viewing,many small,Stimulus\all_stim\occlusion\partialviewing\manysmall\control\manysmall_partialViewing_control_tree5.png,mask_img/000000041174.png,experiment,u,u,557.0557616000297
V3,29,25,Female,Left,131,Block 1,1.1116166000720114,0.1,true,bird,bird,occlusion,control,mask,partial viewing,few large,Stimulus\all_stim\occlusion\partialviewing\fewlarge\control\fewlarge_partialViewing_control_bird4.png,mask_img/000000001997.png,experiment,w,w,559.1774201999651
V3,29,25,Female,Left,132,Block 1,1.0195775999454781,0.025,true,tree,tree,occlusion,high,mask,partial viewing,many small,Stimulus\all_stim\occlusion\partialviewing\manysmall\high\manysmall_partialViewing_high_tree6.png,mask_img/000000053539.png,experiment,u,u,561.0318081000587
V3,29,25,Female,Left,133,Block 1,0.7654283000156283,0.05,true,person,person,occlusion,low,mask,partial viewing,few large,Stimulus\all_stim\occlusion\partialviewing\fewlarge\low\fewlarge_partialViewing_low_person7.png,mask_img/000000030526.png,experiment,q,q,562.6077826999826
V3,29,25,Female,Left,134,Block 1,0.9216775000095367,0.025,true,person,person,occlusion,control,mask,partial viewing,few large,Stimulus\all_stim\occlusion\partialviewing\fewlarge\control\fewlarge_partialViewing_control_person5.png,mask_img/000000009286.png,experiment,q,q,564.2474509000313
V3,29,25,Female,Left,135,Block 1,1.3737734000897035,0.025,true,building,building,occlusion,high,mask,partial viewing,many small,Stimulus\all_stim\occlusion\partialviewing\manysmall\high\manysmall_partialViewing_high_building6.png,mask_img/000000046155.png,experiment,e,e,566.296229199972
V3,29,25,Female,Left,136,Block 1,1.579444000031799,0.025,true,bus,bus,occlusion,low,mask,partial viewing,many small,Stimulus\all_stim\occlusion\partialviewing\manysmall\low\manysmall_partialViewing_low_bus9.png,mask_img/000000058910.png,experiment,i,i,568.9773895000108
V3,29,25,Female,Left,137,Block 1,1.296137599973008,0.1,true,building,building,occlusion,high,mask,partial viewing,many small,Stimulus\all_stim\occlusion\partialviewing\manysmall\high\manysmall_partialViewing_high_building5.png,mask_img/000000046029.png,experiment,e,e,571.1436737000477
V3,29,25,Female,Left,138,Block 1,0.7142674999777228,0.025,true,banana,banana,occlusion,low,mask,partial viewing,many small,Stimulus\all_stim\occlusion\partialviewing\manysmall\low\manysmall_partialViewing_low_banana4.png,mask_img/000000055202.png,experiment,p,p,572.7034350000322
V3,29,25,Female,Left,139,Block 1,0.8426863000495359,0.025,false,firehydrant,banana,occlusion,high,mask,partial viewing,many small,Stimulus\all_stim\occlusion\partialviewing\manysmall\high\manysmall_partialViewing_high_firehydrant4.png,mask_img/000000050412.png,experiment,p,r,574.4874908999773
V3,29,25,Female,Left,140,Block 1,1.535806900006719,0.1,true,building,building,occlusion,control,mask,partial viewing,few large,Stimulus\all_stim\occlusion\partialviewing\fewlarge\control\fewlarge_partialViewing_control_building10.png,mask_img/000000003225.png,experiment,e,e,577.087599099963
V3,29,25,Female,Left,141,Block 1,0.9839757999870926,0.025,true,bus,bus,occlusion,low,mask,partial viewing,few large,Stimulus\all_stim\occlusion\partialviewing\fewlarge\low\fewlarge_partialViewing_low_bus1.png,mask_img/000000025820.png,experiment,i,i,578.8635106000584
V3,29,25,Female,Left,142,Block 1,1.1877943000290543,0.1,true,building,building,occlusion,high,mask,partial viewing,many small,Stimulus\all_stim\occlusion\partialviewing\manysmall\high\manysmall_partialViewing_high_building1.png,mask_img/000000044950.png,experiment,e,e,580.9436046000337
V3,29,25,Female,Left,143,Block 1,1.0598266000160947,0.1,true,bird,bird,occlusion,control,mask,partial viewing,many small,Stimulus\all_stim\occlusion\partialviewing\manysmall\control\manysmall_partialViewing_control_bird2.png,mask_img/000000034455.png,experiment,w,w,582.8574804000091
V3,29,25,Female,Left,144,Block 1,1.3343205000273883,0.05,true,bus,bus,occlusion,low,mask,partial viewing,few large,Stimulus\all_stim\occlusion\partialviewing\fewlarge\low\fewlarge_partialViewing_low_bus9.png,mask_img/000000027005.png,experiment,i,i,593.7036956000375
V3,29,25,Female,Left,145,Block 2,0.896968699991703,0.1,true,bus,bus,occlusion,high,mask,partial viewing,many small,Stimulus\all_stim\occlusion\partialviewing\manysmall\high\manysmall_partialViewing_high_bus8.png,mask_img/000000048169.png,experiment,i,i,595.5756267000688
V3,29,25,Female,Left,146,Block 2,1.0152065999573097,0.025,false,bird,cat,occlusion,low,mask,partial viewing,many small,Stimulus\all_stim\occlusion\partialviewing\manysmall\low\manysmall_partialViewing_low_bird1.png,mask_img/000000055694.png,experiment,o,w,597.6315870999824
V3,29,25,Female,Left,147,Block 2,0.6382847999921069,0.05,true,banana,banana,occlusion,control,mask,partial viewing,many small,Stimulus\all_stim\occlusion\partialviewing\manysmall\control\manysmall_partialViewing_control_banana5.png,mask_img/000000033669.png,experiment,p,p,599.2393634000327
V3,29,25,Female,Left,148,Block 2,1.0633298000320792,0.05,true,bus,bus,occlusion,control,mask,partial viewing,few large,Stimulus\all_stim\occlusion\partialviewing\fewlarge\control\fewlarge_partialViewing_control_bus1.png,mask_img/000000005142.png,experiment,i,i,601.0076268999837
V3,29,25,Female,Left,149,Block 2,1.1390212000114843,0.05,true,firehydrant,firehydrant,occlusion,low,mask,partial viewing,few large,Stimulus\all_stim\occlusion\partialviewing\fewlarge\low\fewlarge_partialViewing_low_firehydrant1.png,mask_img/000000028304.png,experiment,r,r,602.8396740000462
V3,29,25,Female,Left,150,Block 2,0.8488479000516236,0.05,true,bus,bus,occlusion,control,mask,partial viewing,few large,Stimulus\all_stim\occlusion\partialviewing\fewlarge\control\fewlarge_partialViewing_control_bus10.png,mask_img/000000005282.png,experiment,i,i,604.6237948000198
V3,29,25,Female,Left,151,Block 2,0.618939199950546,0.025,true,bus,bus,occlusion,high,mask,partial viewing,few large,Stimulus\all_stim\occlusion\partialviewing\fewlarge\high\fewlarge_partialViewing_high_bus10.png,mask_img/000000015733.png,experiment,i,i,606.3195448999759
V3,29,25,Female,Left,152,Block 2,0.9595944000175223,0.05,true,bird,bird,occlusion,high,mask,partial viewing,few large,Stimulus\all_stim\occlusion\partialviewing\fewlarge\high\fewlarge_partialViewing_high_bird8.png,mask_img/000000014168.png,experiment,w,w,607.943427399965
V3,29,25,Female,Left,153,Block 2,0.8352681000251323,0.05,true,bus,bus,occlusion,low,mask,partial viewing,few large,Stimulus\all_stim\occlusion\partialviewing\fewlarge\low\fewlarge_partialViewing_low_bus10.png,mask_img/000000025855.png,experiment,i,i,609.6715470000636
V3,29,25,Female,Left,154,Block 2,0.887639099964872,0.025,true,cat,cat,occlusion,control,mask,partial viewing,few large,Stimulus\all_stim\occlusion\partialviewing\fewlarge\control\fewlarge_partialViewing_control_cat6.png,mask_img/000000007179.png,experiment,o,o,611.3355364999734
V3,29,25,Female,Left,155,Block 2,1.1885060999775305,0.05,true,tree,tree,occlusion,high,mask,partial viewing,few large,Stimulus\all_stim\occlusion\partialviewing\fewlarge\high\fewlarge_partialViewing_high_tree4.png,mask_img/000000021981.png,experiment,u,u,613.3837802000344
V3,29,25,Female,Left,156,Block 2,1.0323207000037655,0.1,true,cat,cat,occlusion,high,mask,partial viewing,many small,Stimulus\all_stim\occlusion\partialviewing\manysmall\high\manysmall_partialViewing_high_cat4.png,mask_img/000000049331.png,experiment,o,o,615.4636608000146
V3,29,25,Female,Left,157,Block 2,0.8522957999957725,0.025,true,bus,bus,occlusion,high,mask,partial viewing,many small,Stimulus\all_stim\occlusion\partialviewing\manysmall\high\manysmall_partialViewing_high_bus5.png,mask_img/000000047395.png,experiment,i,i,617.0875507000601
V3,29,25,Female,Left,158,Block 2,1.144470899947919,0.05,true,tree,tree,occlusion,control,mask,partial viewing,many small,Stimulus\all_stim\occlusion\partialviewing\manysmall\control\manysmall_partialViewing_control_tree3.png,mask_img/000000041014.png,experiment,u,u,618.960187299992
V3,29,25,Female,Left,159,Block 2,0.8790894000558183,0.025,true,bus,bus,occlusion,high,mask,partial viewing,many small,Stimulus\all_stim\occlusion\partialviewing\manysmall\high\manysmall_partialViewing_high_bus2.png,mask_img/000000046852.png,experiment,i,i,620.9353718999773
V3,29,25,Female,Left,160,Block 2,0.7570289000868797,0.025,true,bus,bus,occlusion,high,mask,partial viewing,many small,Stimulus\all_stim\occlusion\partialviewing\manysmall\high\manysmall_partialViewing_high_bus8.png,mask_img/000000048169.png,experiment,i,i,622.7036991000641
V3,29,25,Female,Left,161,Block 2,0.819180199992843,0.05,true,bus,bus,occlusion,high,mask,partial viewing,many small,Stimulus\all_stim\occlusion\partialviewing\manysmall\high\manysmall_partialViewing_high_bus5.png,mask_img/000000047395.png,experiment,i,i,624.2236970000667
V3,29,25,Female,Left,162,Block 2,1.1860818000277504,0.1,true,tree,tree,occlusion,control,mask,partial viewing,many small,Stimulus\all_stim\occlusion\partialviewing\manysmall\control\manysmall_partialViewing_control_tree10.png,mask_img/000000040948.png,experiment,u,u,626.4156819999916
V3,29,25,Female,Left,163,Block 2,0.8004240000154823,0.05,true,banana,banana,occlusion,low,mask,partial viewing,many small,Stimulus\all_stim\occlusion\partialviewing\manysmall\low\manysmall_partialViewing_low_banana10.png,mask_img/000000054723.png,experiment,p,p,628.2636288000504
V3,29,25,Female,Left,164,Block 2,0.9233406001003459,0.025,true,cat,cat,occlusion,low,mask,partial viewing,many small,Stimulus\all_stim\occlusion\partialviewing\manysmall\low\manysmall_partialViewing_low_cat9.png,mask_img/000000060387.png,experiment,o,o,630.0573530000402
V3,29,25,Female,Left,165,Block 2,0.8195984000340104,0.05,true,bus,bus,occlusion,low,mask,partial viewing,many small,Stimulus\all_stim\occlusion\partialviewing\manysmall\low\manysmall_partialViewing_low_bus5.png,mask_img/000000058801.png,experiment,i,i,631.9695748999948
V3,29,25,Female,Left,166,Block 2,1.0022587000858039,0.1,true,cat,cat,occlusion,control,mask,partial viewing,many small,Stimulus\all_stim\occlusion\partialviewing\manysmall\control\manysmall_partialViewing_control_cat4.png,mask_img/000000038479.png,experiment,o,o,633.8233629000606
V3,29,25,Female,Left,167,Block 2,0.808141199988313,0.025,true,banana,banana,occlusion,high,mask,partial viewing,few large,Stimulus\all_stim\occlusion\partialviewing\fewlarge\high\fewlarge_partialViewing_high_banana5.png,mask_img/000000012543.png,experiment,p,p,635.4877397000091
V3,29,25,Female,Left,168,Block 2,1.1531962000299245,0.025,true,firehydrant,firehydrant,occlusion,control,mask,partial viewing,many small,Stimulus\all_stim\occlusion\partialviewing\manysmall\control\manysmall_partialViewing_control_firehydrant6.png,mask_img/000000039406.png,experiment,r,r,637.5994918000652
V3,29,25,Female,Left,169,Block 2,0.8124337999615818,0.05,true,banana,banana,occlusion,control,mask,partial viewing,many small,Stimulus\all_stim\occlusion\partialviewing\manysmall\control\manysmall_partialViewing_control_banana4.png,mask_img/000000033667.png,experiment,p,p,639.3834686999908
V3,29,25,Female,Left,170,Block 2,0.9626548999221995,0.05,false,person,cat,occlusion,high,mask,partial viewing,few large,Stimulus\all_stim\occlusion\partialviewing\fewlarge\high\fewlarge_partialViewing_high_person10.png,mask_img/000000019927.png,experiment,o,q,640.9996175999986
V3,29,25,Female,Left,171,Block 2,1.27629710000474,0.05,true,firehydrant,firehydrant,occlusion,control,mask,partial viewing,few large,Stimulus\all_stim\occlusion\partialviewing\fewlarge\control\fewlarge_partialViewing_control_firehydrant9.png,mask_img/000000008329.png,experiment,r,r,643.2874535999727
V3,29,25,Female,Left,172,Block 2,0.8309477000730112,0.05,true,banana,banana,occlusion,high,mask,partial viewing,many small,Stimulus\all_stim\occlusion\partialviewing\manysmall\high\manysmall_partialViewing_high_banana6.png,mask_img/000000042704.png,experiment,p,p,645.167521800031
V3,29,25,Female,Left,173,Block 2,1.0597449999768287,0.025,false,building,firehydrant,occlusion,high,mask,partial viewing,few large,Stimulus\all_stim\occlusion\partialviewing\fewlarge\high\fewlarge_partialViewing_high_building4.png,mask_img/000000014592.png,experiment,r,e,646.9915801000316
V3,29,25,Female,Left,174,Block 2,0.8996083999518305,0.05,true,cat,cat,occlusion,control,mask,partial viewing,many small,Stimulus\all_stim\occlusion\partialviewing\manysmall\control\manysmall_partialViewing_control_cat5.png,mask_img/000000038601.png,experiment,o,o,648.5372276999988
V3,29,25,Female,Left,175,Block 2,0.7972072999691591,0.05,true,cat,cat,occlusion,low,mask,partial viewing,few large,Stimulus\all_stim\occlusion\partialviewing\fewlarge\low\fewlarge_partialViewing_low_cat6.png,mask_img/000000027764.png,experiment,o,o,650.3840507999994
V3,29,25,Female,Left,176,Block 2,1.0262960999971256,0.05,true,tree,tree,occlusion,high,mask,partial viewing,many small,Stimulus\all_stim\occlusion\partialviewing\manysmall\high\manysmall_partialViewing_high_tree5.png,mask_img/000000053410.png,experiment,u,u,652.4717065000441
V3,29,25,Female,Left,177,Block 2,0.8873504999792203,0.025,true,person,person,occlusion,control,mask,partial viewing,many small,Stimulus\all_stim\occlusion\partialviewing\manysmall\control\manysmall_partialViewing_control_person3.png,mask_img/000000040008.png,experiment,q,q,654.2235218000133
V3,29,25,Female,Left,178,Block 2,1.5369758000597358,0.025,true,building,building,occlusion,control,mask,partial viewing,few large,Stimulus\all_stim\occlusion\partialviewing\fewlarge\control\fewlarge_partialViewing_control_building1.png,mask_img/000000003084.png,experiment,e,e,656.6476594000123
V3,29,25,Female,Left,179,Block 2,0.9377963000442833,0.05,true,person,person,occlusion,control,mask,partial viewing,many small,Stimulus\all_stim\occlusion\partialviewing\manysmall\control\manysmall_partialViewing_control_person10.png,mask_img/000000039778.png,experiment,q,q,658.711506200023
V3,29,25,Female,Left,180,Block 2,1.0719408000586554,0.1,true,tree,tree,occlusion,high,mask,partial viewing,many small,Stimulus\all_stim\occlusion\partialviewing\manysmall\high\manysmall_partialViewing_high_tree5.png,mask_img/000000053410.png,experiment,u,u,660.7995388000272
V3,29,25,Female,Left,181,Block 2,0.7880091000115499,0.025,true,cat,cat,occlusion,control,mask,partial viewing,many small,Stimulus\all_stim\occlusion\partialviewing\manysmall\control\manysmall_partialViewing_control_cat8.png,mask_img/000000038817.png,experiment,o,o,662.559557300061
V3,29,25,Female,Left,182,Block 2,2.1438482999801636,0.1,false,bird,cat,occlusion,low,mask,partial viewing,many small,Stimulus\all_stim\occlusion\partialviewing\manysmall\low\manysmall_partialViewing_low_bird1.png,mask_img/000000055694.png,experiment,o,w,665.759812299977
V3,29,25,Female,Left,183,Block 2,1.0307726000901312,0.05,true,tree,tree,occlusion,control,mask,partial viewing,few large,Stimulus\all_stim\occlusion\partialviewing\fewlarge\control\fewlarge_partialViewing_control_tree1.png,mask_img/000000010281.png,experiment,u,u,667.6244795999955
V3,29,25,Female,Left,184,Block 2,1.4469222999177873,0.1,true,building,building,occlusion,low,mask,partial viewing,few large,Stimulus\all_stim\occlusion\partialviewing\fewlarge\low\fewlarge_partialViewing_low_building5.png,mask_img/000000025034.png,experiment,e,e,669.8718535000226
V3,29,25,Female,Left,185,Block 2,0.8305216000881046,0.05,true,building,building,occlusion,high,mask,partial viewing,few large,Stimulus\all_stim\occlusion\partialviewing\fewlarge\high\fewlarge_partialViewing_high_building5.png,mask_img/000000014759.png,experiment,e,e,671.4877563000191
V3,29,25,Female,Left,186,Block 2,0.8268608000362292,0.05,true,cat,cat,occlusion,control,mask,partial viewing,many small,Stimulus\all_stim\occlusion\partialviewing\manysmall\control\manysmall_partialViewing_control_cat3.png,mask_img/000000038381.png,experiment,o,o,673.2715698999818
V3,29,25,Female,Left,187,Block 2,0.8066404999699444,0.1,true,cat,cat,occlusion,control,mask,partial viewing,few large,Stimulus\all_stim\occlusion\partialviewing\fewlarge\control\fewlarge_partialViewing_control_cat1.png,mask_img/000000006437.png,experiment,o,o,674.7375551000005
V3,29,25,Female,Left,188,Block 2,1.1466452999738976,0.1,true,building,building,occlusion,control,mask,partial viewing,many small,Stimulus\all_stim\occlusion\partialviewing\manysmall\control\manysmall_partialViewing_control_building9.png,mask_img/000000036226.png,experiment,e,e,676.9034085000167
V3,29,25,Female,Left,189,Block 2,0.8313138999510556,0.025,true,bus,bus,occlusion,control,mask,partial viewing,few large,Stimulus\all_stim\occlusion\partialviewing\fewlarge\control\fewlarge_partialViewing_control_bus4.png,mask_img/000000005574.png,experiment,i,i,678.775602000067
V3,29,25,Female,Left,190,Block 2,1.198010899941437,0.1,true,bird,bird,occlusion,low,mask,partial viewing,few large,Stimulus\all_stim\occlusion\partialviewing\fewlarge\low\fewlarge_partialViewing_low_bird6.png,mask_img/000000024247.png,experiment,w,w,680.7996554999845
V3,29,25,Female,Left,191,Block 2,1.0907169000711292,0.1,true,tree,tree,occlusion,high,mask,partial viewing,few large,Stimulus\all_stim\occlusion\partialviewing\fewlarge\high\fewlarge_partialViewing_high_tree5.png,mask_img/000000022102.png,experiment,u,u,682.5516702999594
V3,29,25,Female,Left,192,Block 2,1.2802192000672221,0.1,true,firehydrant,firehydrant,occlusion,low,mask,partial viewing,few large,Stimulus\all_stim\occlusion\partialviewing\fewlarge\low\fewlarge_partialViewing_low_firehydrant10.png,mask_img/000000028367.png,experiment,r,r,684.9114525000332
V3,29,25,Female,Left,193,Block 2,0.8238354000495747,0.1,true,banana,banana,occlusion,low,mask,partial viewing,few large,Stimulus\all_stim\occlusion\partialviewing\fewlarge\low\fewlarge_partialViewing_low_banana1.png,mask_img/000000022545.png,experiment,p,p,686.7676082999678
V3,29,25,Female,Left,194,Block 2,1.3533151999581605,0.025,false,cat,firehydrant,occlusion,high,mask,partial viewing,many small,Stimulus\all_stim\occlusion\partialviewing\manysmall\high\manysmall_partialViewing_high_cat5.png,mask_img/000000049428.png,experiment,r,o,688.9117538999999
V3,29,25,Female,Left,195,Block 2,1.0762828000588343,0.1,true,bird,bird,occlusion,control,mask,partial viewing,few large,Stimulus\all_stim\occlusion\partialviewing\fewlarge\control\fewlarge_partialViewing_control_bird2.png,mask_img/000000001647.png,experiment,w,w,690.9117668999825
V3,29,25,Female,Left,196,Block 2,1.2601919999578968,0.1,false,cat,bird,occlusion,high,mask,partial viewing,many small,Stimulus\all_stim\occlusion\partialviewing\manysmall\high\manysmall_partialViewing_high_cat8.png,mask_img/000000049763.png,experiment,w,o,693.0076487000333
V3,29,25,Female,Left,197,Block 2,1.0114671000046656,0.025,true,tree,tree,occlusion,high,mask,partial viewing,few large,Stimulus\all_stim\occlusion\partialviewing\fewlarge\high\fewlarge_partialViewing_high_tree7.png,mask_img/000000022256.png,experiment,u,u,694.8646515000146
V3,29,25,Female,Left,198,Block 2,1.0738402000861242,0.025,true,firehydrant,firehydrant,occlusion,low,mask,partial viewing,many small,Stimulus\all_stim\occlusion\partialviewing\manysmall\low\manysmall_partialViewing_low_firehydrant8.png,mask_img/000000061512.png,experiment,r,r,696.84771979996
V3,29,25,Female,Left,199,Block 2,0.8791516999481246,0.1,true,firehydrant,firehydrant,occlusion,high,mask,partial viewing,many small,Stimulus\all_stim\occlusion\partialviewing\manysmall\high\manysmall_partialViewing_high_firehydrant5.png,mask_img/000000050496.png,experiment,r,r,698.4558824000414
V3,29,25,Female,Left,200,Block 2,1.3509637999814004,0.1,true,building,building,occlusion,control,mask,partial viewing,many small,Stimulus\all_stim\occlusion\partialviewing\manysmall\control\manysmall_partialViewing_control_building2.png,mask_img/000000035864.png,experiment,e,e,700.7518198000034
V3,29,25,Female,Left,201,Block 2,0.8436467000283301,0.05,true,banana,banana,occlusion,high,mask,partial viewing,few large,Stimulus\all_stim\occlusion\partialviewing\fewlarge\high\fewlarge_partialViewing_high_banana7.png,mask_img/000000012567.png,experiment,p,p,702.2795909000561
V3,29,25,Female,Left,202,Block 2,1.2187618999741971,0.025,true,building,building,occlusion,high,mask,partial viewing,few large,Stimulus\all_stim\occlusion\partialviewing\fewlarge\high\fewlarge_partialViewing_high_building2.png,mask_img/000000014472.png,experiment,e,e,704.3355189000722
V3,29,25,Female,Left,203,Block 2,0.8522879999363795,0.025,false,bird,person,occlusion,low,mask,partial viewing,few large,Stimulus\all_stim\occlusion\partialviewing\fewlarge\low\fewlarge_partialViewing_low_bird4.png,mask_img/000000024193.png,experiment,q,w,706.1115460000001
V3,29,25,Female,Left,204,Block 2,1.183763699955307,0.025,true,building,building,occlusion,high,mask,partial viewing,few large,Stimulus\all_stim\occlusion\partialviewing\fewlarge\high\fewlarge_partialViewing_high_building8.png,mask_img/000000015366.png,experiment,e,e,708.2556248999899
V3,29,25,Female,Left,205,Block 2,0.802824700018391,0.1,false,bird,person,occlusion,high,mask,partial viewing,few large,Stimulus\all_stim\occlusion\partialviewing\fewlarge\high\fewlarge_partialViewing_high_bird1.png,mask_img/000000013061.png,experiment,q,w,709.7755532000447
V3,29,25,Female,Left,206,Block 2,0.8932071999879554,0.1,true,bus,bus,occlusion,high,mask,partial viewing,few large,Stimulus\all_stim\occlusion\partialviewing\fewlarge\high\fewlarge_partialViewing_high_bus2.png,mask_img/000000015862.png,experiment,i,i,711.527486499981
V3,29,25,Female,Left,207,Block 2,0.8928628000430763,0.1,false,bird,person,occlusion,high,mask,partial viewing,few large,Stimulus\all_stim\occlusion\partialviewing\fewlarge\high\fewlarge_partialViewing_high_bird4.png,mask_img/000000013721.png,experiment,q,w,713.4960854999954
V3,29,25,Female,Left,208,Block 2,0.640381500008516,0.05,true,banana,banana,occlusion,control,mask,partial viewing,few large,Stimulus\all_stim\occlusion\partialviewing\fewlarge\control\fewlarge_partialViewing_control_banana10.png,mask_img/000000000109.png,experiment,p,p,715.1356506999582
V3,29,25,Female,Left,209,Block 2,1.107226699939929,0.1,true,bird,bird,occlusion,control,mask,partial viewing,many small,Stimulus\all_stim\occlusion\partialviewing\manysmall\control\manysmall_partialViewing_control_bird10.png,mask_img/000000034304.png,experiment,w,w,717.0474635000573
V3,29,25,Female,Left,210,Block 2,0.9012276999419555,0.1,true,bus,bus,occlusion,high,mask,partial viewing,few large,Stimulus\all_stim\occlusion\partialviewing\fewlarge\high\fewlarge_partialViewing_high_bus4.png,mask_img/000000015927.png,experiment,i,i,718.9117040999699
V3,29,25,Female,Left,211,Block 2,0.7812508000060916,0.1,true,banana,banana,occlusion,control,mask,partial viewing,many small,Stimulus\all_stim\occlusion\partialviewing\manysmall\control\manysmall_partialViewing_control_banana10.png,mask_img/000000033074.png,experiment,p,p,720.5678152999608
V3,29,25,Female,Left,212,Block 2,1.140580700011924,0.05,true,firehydrant,firehydrant,occlusion,high,mask,partial viewing,many small,Stimulus\all_stim\occlusion\partialviewing\manysmall\high\manysmall_partialViewing_high_firehydrant3.png,mask_img/000000050276.png,experiment,r,r,722.8077982000541
V3,29,25,Female,Left,213,Block 2,0.9922766999807209,0.1,true,bus,bus,occlusion,control,mask,partial viewing,many small,Stimulus\all_stim\occlusion\partialviewing\manysmall\control\manysmall_partialViewing_control_bus4.png,mask_img/000000036966.png,experiment,i,i,724.5437612000387
V3,29,25,Female,Left,214,Block 2,1.0934575999854133,0.025,true,bird,bird,occlusion,control,mask,partial viewing,few large,Stimulus\all_stim\occlusion\partialviewing\fewlarge\control\fewlarge_partialViewing_control_bird5.png,mask_img/000000002197.png,experiment,w,w,726.5115191000514
V3,29,25,Female,Left,215,Block 2,1.0030605000210926,0.1,true,bird,bird,occlusion,control,mask,partial viewing,few large,Stimulus\all_stim\occlusion\partialviewing\fewlarge\control\fewlarge_partialViewing_control_bird5.png,mask_img/000000002197.png,experiment,w,w,728.4796992000192
V3,29,25,Female,Left,216,Block 2,0.8853652999969199,0.05,true,bus,bus,occlusion,control,mask,partial viewing,many small,Stimulus\all_stim\occlusion\partialviewing\manysmall\control\manysmall_partialViewing_control_bus10.png,mask_img/000000036482.png,experiment,i,i,730.2713968000608
V3,29,25,Female,Left,217,Block 2,0.8733832000289112,0.025,true,bird,bird,occlusion,high,mask,partial viewing,few large,Stimulus\all_stim\occlusion\partialviewing\fewlarge\high\fewlarge_partialViewing_high_bird5.png,mask_img/000000013914.png,experiment,w,w,731.8957297999877
V3,29,25,Female,Left,218,Block 2,0.8105680000735447,0.05,true,cat,cat,occlusion,high,mask,partial viewing,many small,Stimulus\all_stim\occlusion\partialviewing\manysmall\high\manysmall_partialViewing_high_cat4.png,mask_img/000000049331.png,experiment,o,o,733.391905699973
V3,29,25,Female,Left,219,Block 2,0.7737155000213534,0.1,true,cat,cat,occlusion,low,mask,partial viewing,many small,Stimulus\all_stim\occlusion\partialviewing\manysmall\low\manysmall_partialViewing_low_cat7.png,mask_img/000000060158.png,experiment,o,o,735.0795421999646
V3,29,25,Female,Left,220,Block 2,0.7350446000928059,0.05,true,cat,cat,occlusion,control,mask,partial viewing,few large,Stimulus\all_stim\occlusion\partialviewing\fewlarge\control\fewlarge_partialViewing_control_cat5.png,mask_img/000000006870.png,experiment,o,o,736.7914561000653
V3,29,25,Female,Left,221,Block 2,1.0570248999865726,0.1,true,firehydrant,firehydrant,occlusion,control,mask,partial viewing,few large,Stimulus\all_stim\occlusion\partialviewing\fewlarge\control\fewlarge_partialViewing_control_firehydrant3.png,mask_img/000000007946.png,experiment,r,r,738.8484300000127
V3,29,25,Female,Left,222,Block 2,0.8158018999965861,0.05,true,person,person,occlusion,control,mask,partial viewing,many small,Stimulus\all_stim\occlusion\partialviewing\manysmall\control\manysmall_partialViewing_control_person6.png,mask_img/000000040325.png,experiment,q,q,740.5034719000105
V3,29,25,Female,Left,223,Block 2,0.6215055999346077,0.1,true,banana,banana,occlusion,control,mask,partial viewing,few large,Stimulus\all_stim\occlusion\partialviewing\fewlarge\control\fewlarge_partialViewing_control_banana5.png,mask_img/000000000459.png,experiment,p,p,741.9840734000318
V3,29,25,Female,Left,224,Block 2,1.157224699971266,0.05,true,tree,tree,occlusion,control,mask,partial viewing,many small,Stimulus\all_stim\occlusion\partialviewing\manysmall\control\manysmall_partialViewing_control_tree2.png,mask_img/000000041008.png,experiment,u,u,744.1839478999609
V3,29,25,Female,Left,225,Block 2,1.1731719999806955,0.05,true,building,building,occlusion,control,mask,partial viewing,few large,Stimulus\all_stim\occlusion\partialviewing\fewlarge\control\fewlarge_partialViewing_control_building9.png,mask_img/000000005131.png,experiment,e,e,746.1436094000237
V3,29,25,Female,Left,226,Block 2,0.9521374000469223,0.05,false,bird,cat,occlusion,low,mask,partial viewing,many small,Stimulus\all_stim\occlusion\partialviewing\manysmall\low\manysmall_partialViewing_low_bird7.png,mask_img/000000056036.png,experiment,o,w,748.0713168999646
V3,29,25,Female,Left,227,Block 2,0.6444962000241503,0.05,false,bird,cat,occlusion,high,mask,partial viewing,many small,Stimulus\all_stim\occlusion\partialviewing\manysmall\high\manysmall_partialViewing_high_bird6.png,mask_img/000000044523.png,experiment,o,w,749.5356991000008
V3,29,25,Female,Left,228,Block 2,1.0454744000453502,0.025,true,tree,tree,occlusion,control,mask,partial viewing,few large,Stimulus\all_stim\occlusion\partialviewing\fewlarge\control\fewlarge_partialViewing_control_tree10.png,mask_img/000000010414.png,experiment,u,u,751.6955596000189
V3,29,25,Female,Left,229,Block 2,1.358587099937722,0.05,false,bus,building,occlusion,low,mask,partial viewing,many small,Stimulus\all_stim\occlusion\partialviewing\manysmall\low\manysmall_partialViewing_low_bus9.png,mask_img/000000058910.png,experiment,e,i,754.0558597999625
V3,29,25,Female,Left,230,Block 2,0.9504392000380903,0.1,false,person,cat,occlusion,low,mask,partial viewing,many small,Stimulus\all_stim\occlusion\partialviewing\manysmall\low\manysmall_partialViewing_low_person7.png,mask_img/000000062350.png,experiment,o,q,756.0239444000181
V3,29,25,Female,Left,231,Block 2,1.0428136000409722,0.1,true,firehydrant,firehydrant,occlusion,control,mask,partial viewing,many small,Stimulus\all_stim\occlusion\partialviewing\manysmall\control\manysmall_partialViewing_control_firehydrant7.png,mask_img/000000039475.png,experiment,r,r,758.135670299991
V3,29,25,Female,Left,232,Block 2,0.8117143000708893,0.025,false,person,cat,occlusion,high,mask,partial viewing,many small,Stimulus\all_stim\occlusion\partialviewing\manysmall\high\manysmall_partialViewing_high_person4.png,mask_img/000000052087.png,experiment,o,q,759.751614900073
V3,29,25,Female,Left,233,Block 2,0.7305898000486195,0.05,true,firehydrant,firehydrant,occlusion,control,mask,partial viewing,many small,Stimulus\all_stim\occlusion\partialviewing\manysmall\control\manysmall_partialViewing_control_firehydrant4.png,mask_img/000000039141.png,experiment,r,r,761.3036453999812
V3,29,25,Female,Left,234,Block 2,0.658877499983646,0.025,false,person,cat,occlusion,low,mask,partial viewing,many small,Stimulus\all_stim\occlusion\partialviewing\manysmall\low\manysmall_partialViewing_low_person3.png,mask_img/000000062128.png,experiment,o,q,763.0956145999953
V3,29,25,Female,Left,235,Block 2,0.8566263000248,0.1,true,banana,banana,occlusion,low,mask,partial viewing,few large,Stimulus\all_stim\occlusion\partialviewing\fewlarge\low\fewlarge_partialViewing_low_banana9.png,mask_img/000000023967.png,experiment,p,p,764.719689700054
V3,29,25,Female,Left,236,Block 2,1.483410199987702,0.05,true,building,building,occlusion,high,mask,partial viewing,few large,Stimulus\all_stim\occlusion\partialviewing\fewlarge\high\fewlarge_partialViewing_high_building10.png,mask_img/000000014428.png,experiment,e,e,767.3116265999852
V3,29,25,Female,Left,237,Block 2,0.680499600013718,0.025,true,person,person,occlusion,control,mask,partial viewing,few large,Stimulus\all_stim\occlusion\partialviewing\fewlarge\control\fewlarge_partialViewing_control_person3.png,mask_img/000000008920.png,experiment,q,q,768.7998480000533
V3,29,25,Female,Left,238,Block 2,0.8234903999837115,0.025,true,cat,cat,occlusion,high,mask,partial viewing,few large,Stimulus\all_stim\occlusion\partialviewing\fewlarge\high\fewlarge_partialViewing_high_cat9.png,mask_img/000000017858.png,experiment,o,o,770.4236452999758
V3,29,25,Female,Left,239,Block 2,1.0565748000517488,0.05,true,building,building,occlusion,low,mask,partial viewing,many small,Stimulus\all_stim\occlusion\partialviewing\manysmall\low\manysmall_partialViewing_low_building4.png,mask_img/000000057782.png,experiment,e,e,772.4638555999845
V3,29,25,Female,Left,240,Block 2,0.6740944000193849,0.05,true,building,building,occlusion,low,mask,partial viewing,few large,Stimulus\all_stim\occlusion\partialviewing\fewlarge\low\fewlarge_partialViewing_low_building7.png,mask_img/000000025192.png,experiment,e,e,773.7917474000715
V3,29,25,Female,Left,241,Block 2,1.4944249000400305,0.025,true,building,building,occlusion,low,mask,partial viewing,few large,Stimulus\all_stim\occlusion\partialviewing\fewlarge\low\fewlarge_partialViewing_low_building3.png,mask_img/000000024808.png,experiment,e,e,776.1518185000168
V3,29,25,Female,Left,242,Block 2,0.6652488999534398,0.1,false,person,cat,occlusion,high,mask,partial viewing,many small,Stimulus\all_stim\occlusion\partialviewing\manysmall\high\manysmall_partialViewing_high_person6.png,mask_img/000000052426.png,experiment,o,q,777.7289996000472
V3,29,25,Female,Left,243,Block 2,0.8246566000161693,0.025,false,person,cat,occlusion,low,mask,partial viewing,many small,Stimulus\all_stim\occlusion\partialviewing\manysmall\low\manysmall_partialViewing_low_person8.png,mask_img/000000062420.png,experiment,o,q,779.255683299969
V3,29,25,Female,Left,244,Block 2,0.5604669000022113,0.05,false,firehydrant,cat,occlusion,high,mask,partial viewing,many small,Stimulus\all_stim\occlusion\partialviewing\manysmall\high\manysmall_partialViewing_high_firehydrant9.png,mask_img/000000051164.png,experiment,o,r,780.6150384000503
V3,29,25,Female,Left,245,Block 2,1.042284700088203,0.05,true,tree,tree,occlusion,control,mask,partial viewing,few large,Stimulus\all_stim\occlusion\partialviewing\fewlarge\control\fewlarge_partialViewing_control_tree2.png,mask_img/000000010560.png,experiment,u,u,782.5278053999646
V3,29,25,Female,Left,246,Block 2,1.1579274999676272,0.1,true,bus,bus,occlusion,high,mask,partial viewing,few large,Stimulus\all_stim\occlusion\partialviewing\fewlarge\high\fewlarge_partialViewing_high_bus5.png,mask_img/000000015986.png,experiment,i,i,784.3921006000601
V3,29,25,Female,Left,247,Block 2,0.8947113000322133,0.1,true,firehydrant,firehydrant,occlusion,low,mask,partial viewing,many small,Stimulus\all_stim\occlusion\partialviewing\manysmall\low\manysmall_partialViewing_low_firehydrant7.png,mask_img/000000061084.png,experiment,r,r,786.2001913000131
V3,29,25,Female,Left,248,Block 2,0.8452275000745431,0.025,true,tree,tree,occlusion,low,mask,partial viewing,many small,Stimulus\all_stim\occlusion\partialviewing\manysmall\low\manysmall_partialViewing_low_tree7.png,mask_img/000000063754.png,experiment,u,u,787.8972446999978
V3,29,25,Female,Left,249,Block 2,0.747260499978438,0.05,true,building,building,occlusion,control,mask,partial viewing,few large,Stimulus\all_stim\occlusion\partialviewing\fewlarge\control\fewlarge_partialViewing_control_building1.png,mask_img/000000003084.png,experiment,e,e,789.481647000066
V3,29,25,Female,Left,250,Block 2,1.2480818999465555,0.025,true,tree,tree,occlusion,high,mask,partial viewing,few large,Stimulus\all_stim\occlusion\partialviewing\fewlarge\high\fewlarge_partialViewing_high_tree10.png,mask_img/000000021419.png,experiment,u,u,791.4730539000593
V3,29,25,Female,Left,251,Block 2,0.928450100007467,0.05,true,firehydrant,firehydrant,occlusion,high,mask,partial viewing,few large,Stimulus\all_stim\occlusion\partialviewing\fewlarge\high\fewlarge_partialViewing_high_firehydrant3.png,mask_img/000000018864.png,experiment,r,r,793.1114604000468
V3,29,25,Female,Left,252,Block 2,0.6319067999720573,0.05,true,bus,bus,occlusion,low,mask,partial viewing,many small,Stimulus\all_stim\occlusion\partialviewing\manysmall\low\manysmall_partialViewing_low_bus3.png,mask_img/000000058647.png,experiment,i,i,794.7913818999659
V3,29,25,Female,Left,253,Block 2,0.8232357000233606,0.025,false,tree,cat,occlusion,low,mask,partial viewing,many small,Stimulus\all_stim\occlusion\partialviewing\manysmall\low\manysmall_partialViewing_low_tree4.png,mask_img/000000063337.png,experiment,o,u,796.5435960000614
V3,29,25,Female,Left,254,Block 2,0.9438191999215633,0.05,true,building,building,occlusion,low,mask,partial viewing,many small,Stimulus\all_stim\occlusion\partialviewing\manysmall\low\manysmall_partialViewing_low_building7.png,mask_img/000000058021.png,experiment,e,e,798.4317065000068
V3,29,25,Female,Left,255,Block 2,0.6534865000285208,0.05,true,tree,tree,occlusion,low,mask,partial viewing,few large,Stimulus\all_stim\occlusion\partialviewing\fewlarge\low\fewlarge_partialViewing_low_tree5.png,mask_img/000000032403.png,experiment,u,u,800.0203522000229
V3,29,25,Female,Left,256,Block 2,0.9230474000796676,0.05,true,person,person,occlusion,low,mask,partial viewing,few large,Stimulus\all_stim\occlusion\partialviewing\fewlarge\low\fewlarge_partialViewing_low_person9.png,mask_img/000000031017.png,experiment,q,q,801.6315702999709
V3,29,25,Female,Left,257,Block 2,0.9342485000379384,0.1,true,firehydrant,firehydrant,occlusion,low,mask,partial viewing,many small,Stimulus\all_stim\occlusion\partialviewing\manysmall\low\manysmall_partialViewing_low_firehydrant1.png,mask_img/000000060464.png,experiment,r,r,803.3677801999729
V3,29,25,Female,Left,258,Block 2,1.127338399994187,0.1,true,building,building,occlusion,high,mask,partial viewing,few large,Stimulus\all_stim\occlusion\partialviewing\fewlarge\high\fewlarge_partialViewing_high_building4.png,mask_img/000000014592.png,experiment,e,e,805.1998345999746
V3,29,25,Female,Left,259,Block 2,0.6888376000570133,0.025,true,person,person,occlusion,low,mask,partial viewing,few large,Stimulus\all_stim\occlusion\partialviewing\fewlarge\low\fewlarge_partialViewing_low_person1.png,mask_img/000000029090.png,experiment,q,q,806.8794901999645
V3,29,25,Female,Left,260,Block 2,1.189082899945788,0.05,true,tree,tree,occlusion,low,mask,partial viewing,few large,Stimulus\all_stim\occlusion\partialviewing\fewlarge\low\fewlarge_partialViewing_low_tree1.png,mask_img/000000031053.png,experiment,u,u,808.751344999997
V3,29,25,Female,Left,261,Block 2,1.1621312000788748,0.05,true,bird,bird,occlusion,control,mask,partial viewing,few large,Stimulus\all_stim\occlusion\partialviewing\fewlarge\control\fewlarge_partialViewing_control_bird6.png,mask_img/000000002337.png,experiment,w,w,811.0399046000093
V3,29,25,Female,Left,262,Block 2,0.7233919000718743,0.05,true,banana,banana,occlusion,low,mask,partial viewing,few large,Stimulus\all_stim\occlusion\partialviewing\fewlarge\low\fewlarge_partialViewing_low_banana9.png,mask_img/000000023967.png,experiment,p,p,812.6154621000169
V3,29,25,Female,Left,263,Block 2,0.7890269999625161,0.025,true,cat,cat,occlusion,control,mask,partial viewing,many small,Stimulus\all_stim\occlusion\partialviewing\manysmall\control\manysmall_partialViewing_control_cat10.png,mask_img/000000038178.png,experiment,o,o,814.0795111999614
V3,29,25,Female,Left,264,Block 2,0.6322620999999344,0.1,true,banana,banana,occlusion,low,mask,partial viewing,few large,Stimulus\all_stim\occlusion\partialviewing\fewlarge\low\fewlarge_partialViewing_low_banana5.png,mask_img/000000023100.png,experiment,p,p,815.4428464999655
V3,29,25,Female,Left,265,Block 2,0.9534407999599352,0.05,true,tree,tree,occlusion,high,mask,partial viewing,many small,Stimulus\all_stim\occlusion\partialviewing\manysmall\high\manysmall_partialViewing_high_tree2.png,mask_img/000000052901.png,experiment,u,u,817.5280071999878
V3,29,25,Female,Left,266,Block 2,0.7109984999988228,0.05,true,cat,cat,occlusion,control,mask,partial viewing,many small,Stimulus\all_stim\occlusion\partialviewing\manysmall\control\manysmall_partialViewing_control_cat7.png,mask_img/000000038798.png,experiment,o,o,819.167643200024
V3,29,25,Female,Left,267,Block 2,0.8860762999393046,0.1,true,tree,tree,occlusion,high,mask,partial viewing,many small,Stimulus\all_stim\occlusion\partialviewing\manysmall\high\manysmall_partialViewing_high_tree4.png,mask_img/000000053143.png,experiment,u,u,820.9195218000095
V3,29,25,Female,Left,268,Block 2,0.8329439000226557,0.025,true,tree,tree,occlusion,control,mask,partial viewing,few large,Stimulus\all_stim\occlusion\partialviewing\fewlarge\control\fewlarge_partialViewing_control_tree1.png,mask_img/000000010281.png,experiment,u,u,822.7594055000227
V3,29,25,Female,Left,269,Block 2,0.8664669999852777,0.1,true,firehydrant,firehydrant,occlusion,control,mask,partial viewing,few large,Stimulus\all_stim\occlusion\partialviewing\fewlarge\control\fewlarge_partialViewing_control_firehydrant6.png,mask_img/000000008025.png,experiment,r,r,824.5118321999907
V3,29,25,Female,Left,270,Block 2,0.4923011000500992,0.1,true,firehydrant,firehydrant,occlusion,control,mask,partial viewing,few large,Stimulus\all_stim\occlusion\partialviewing\fewlarge\control\fewlarge_partialViewing_control_firehydrant5.png,mask_img/000000008006.png,experiment,r,r,826.031584899989
V3,29,25,Female,Left,271,Block 2,0.8703884000424296,0.1,true,bus,bus,occlusion,high,mask,partial viewing,few large,Stimulus\all_stim\occlusion\partialviewing\fewlarge\high\fewlarge_partialViewing_high_bus8.png,mask_img/000000016715.png,experiment,i,i,827.9994881000603
V3,29,25,Female,Left,272,Block 2,0.949434099951759,0.05,true,bird,bird,occlusion,high,mask,partial viewing,few large,Stimulus\all_stim\occlusion\partialviewing\fewlarge\high\fewlarge_partialViewing_high_bird6.png,mask_img/000000013944.png,experiment,w,w,830.0159468000056
V3,29,25,Female,Left,273,Block 2,0.5928645000094548,0.025,true,tree,tree,occlusion,low,mask,partial viewing,few large,Stimulus\all_stim\occlusion\partialviewing\fewlarge\low\fewlarge_partialViewing_low_tree4.png,mask_img/000000032364.png,experiment,u,u,831.4556229000445
V3,29,25,Female,Left,274,Block 2,0.7200433999532834,0.1,true,cat,cat,occlusion,low,mask,partial viewing,many small,Stimulus\all_stim\occlusion\partialviewing\manysmall\low\manysmall_partialViewing_low_cat10.png,mask_img/000000059046.png,experiment,o,o,832.9674645999912
V3,29,25,Female,Left,275,Block 2,1.0012808999745175,0.1,true,person,person,occlusion,high,mask,partial viewing,many small,Stimulus\all_stim\occlusion\partialviewing\manysmall\high\manysmall_partialViewing_high_person5.png,mask_img/000000052250.png,experiment,q,q,834.9596989999991
V3,29,25,Female,Left,276,Block 2,0.8697728000115603,0.05,true,banana,banana,occlusion,low,mask,partial viewing,few large,Stimulus\all_stim\occlusion\partialviewing\fewlarge\low\fewlarge_partialViewing_low_banana3.png,mask_img/000000023004.png,experiment,p,p,836.647777599981
V3,29,25,Female,Left,277,Block 2,0.847095699980855,0.1,true,banana,banana,occlusion,control,mask,partial viewing,many small,Stimulus\all_stim\occlusion\partialviewing\manysmall\control\manysmall_partialViewing_control_banana7.png,mask_img/000000033861.png,experiment,p,p,838.4475250999676
V3,29,25,Female,Left,278,Block 2,0.929757000063546,0.05,true,banana,banana,occlusion,low,mask,partial viewing,many small,Stimulus\all_stim\occlusion\partialviewing\manysmall\low\manysmall_partialViewing_low_banana1.png,mask_img/000000054532.png,experiment,p,p,840.2476954000304
V3,29,25,Female,Left,279,Block 2,0.9166464000009,0.025,false,bird,banana,occlusion,high,mask,partial viewing,many small,Stimulus\all_stim\occlusion\partialviewing\manysmall\high\manysmall_partialViewing_high_bird1.png,mask_img/000000043966.png,experiment,p,w,841.9913946000161
V3,29,25,Female,Left,280,Block 2,0.8432452999986708,0.05,true,tree,tree,occlusion,low,mask,partial viewing,few large,Stimulus\all_stim\occlusion\partialviewing\fewlarge\low\fewlarge_partialViewing_low_tree7.png,mask_img/000000032906.png,experiment,u,u,843.631698400015
V3,29,25,Female,Left,281,Block 2,0.853200800018385,0.05,true,tree,tree,occlusion,low,mask,partial viewing,many small,Stimulus\all_stim\occlusion\partialviewing\manysmall\low\manysmall_partialViewing_low_tree3.png,mask_img/000000063147.png,experiment,u,u,845.3993693999946
V3,29,25,Female,Left,282,Block 2,0.6976369000039995,0.025,true,person,person,occlusion,control,mask,partial viewing,many small,Stimulus\all_stim\occlusion\partialviewing\manysmall\control\manysmall_partialViewing_control_person8.png,mask_img/000000040466.png,experiment,q,q,846.7913634000579
V3,29,25,Female,Left,283,Block 2,0.7887708999915048,0.025,true,firehydrant,firehydrant,occlusion,low,mask,partial viewing,many small,Stimulus\all_stim\occlusion\partialviewing\manysmall\low\manysmall_partialViewing_low_firehydrant4.png,mask_img/000000060610.png,experiment,r,r,848.5600570000242
V3,29,25,Female,Left,284,Block 2,0.837914599920623,0.1,true,bus,bus,occlusion,high,mask,partial viewing,many small,Stimulus\all_stim\occlusion\partialviewing\manysmall\high\manysmall_partialViewing_high_bus4.png,mask_img/000000047316.png,experiment,i,i,850.0653473000275
V3,29,25,Female,Left,285,Block 2,0.9760779000353068,0.05,true,person,person,occlusion,low,mask,partial viewing,many small,Stimulus\all_stim\occlusion\partialviewing\manysmall\low\manysmall_partialViewing_low_person4.png,mask_img/000000062131.png,experiment,q,q,852.103402000037
V3,29,25,Female,Left,286,Block 2,0.7941040999721736,0.025,true,bus,bus,occlusion,control,mask,partial viewing,many small,Stimulus\all_stim\occlusion\partialviewing\manysmall\control\manysmall_partialViewing_control_bus8.png,mask_img/000000037782.png,experiment,i,i,853.815701500047
V3,29,25,Female,Left,287,Block 2,0.7854825000977144,0.025,true,bus,bus,occlusion,control,mask,partial viewing,few large,Stimulus\all_stim\occlusion\partialviewing\fewlarge\control\fewlarge_partialViewing_control_bus2.png,mask_img/000000005359.png,experiment,i,i,855.3435993000166
V3,29,25,Female,Left,288,Block 2,1.6468590999720618,0.05,true,building,building,occlusion,low,mask,partial viewing,many small,Stimulus\all_stim\occlusion\partialviewing\manysmall\low\manysmall_partialViewing_low_building9.png,mask_img/000000058102.png,experiment,e,e,864.5679536999669
V3,29,25,Female,Left,289,Block 3,1.0324724999954924,0.1,true,tree,tree,occlusion,control,mask,partial viewing,few large,Stimulus\all_stim\occlusion\partialviewing\fewlarge\control\fewlarge_partialViewing_control_tree4.png,mask_img/000000010969.png,experiment,u,u,866.2717552999966
V3,29,25,Female,Left,290,Block 3,1.013027700013481,0.05,true,firehydrant,firehydrant,occlusion,control,mask,partial viewing,many small,Stimulus\all_stim\occlusion\partialviewing\manysmall\control\manysmall_partialViewing_control_firehydrant8.png,mask_img/000000039553.png,experiment,r,r,868.271618800005
V3,29,25,Female,Left,291,Block 3,0.8774049000348896,0.1,true,cat,cat,occlusion,high,mask,partial viewing,many small,Stimulus\all_stim\occlusion\partialviewing\manysmall\high\manysmall_partialViewing_high_cat3.png,mask_img/000000049254.png,experiment,o,o,869.9357266000006
V3,29,25,Female,Left,292,Block 3,0.96046660002321,0.05,true,bird,bird,occlusion,control,mask,partial viewing,many small,Stimulus\all_stim\occlusion\partialviewing\manysmall\control\manysmall_partialViewing_control_bird7.png,mask_img/000000035132.png,experiment,w,w,872.015719100018
V3,29,25,Female,Left,293,Block 3,0.7200805000029504,0.025,true,banana,banana,occlusion,low,mask,partial viewing,many small,Stimulus\all_stim\occlusion\partialviewing\manysmall\low\manysmall_partialViewing_low_banana5.png,mask_img/000000055388.png,experiment,p,p,873.7434951000614
V3,29,25,Female,Left,294,Block 3,0.8418545000022277,0.025,true,banana,banana,occlusion,low,mask,partial viewing,many small,Stimulus\all_stim\occlusion\partialviewing\manysmall\low\manysmall_partialViewing_low_banana3.png,mask_img/000000054875.png,experiment,p,p,875.647606399958
V3,29,25,Female,Left,295,Block 3,0.7801945999963209,0.025,true,cat,cat,occlusion,low,mask,partial viewing,few large,Stimulus\all_stim\occlusion\partialviewing\fewlarge\low\fewlarge_partialViewing_low_cat6.png,mask_img/000000027764.png,experiment,o,o,877.3195979000302
V3,29,25,Female,Left,296,Block 3,0.7626090999692678,0.05,true,person,person,occlusion,high,mask,partial viewing,many small,Stimulus\all_stim\occlusion\partialviewing\manysmall\high\manysmall_partialViewing_high_person10.png,mask_img/000000051453.png,experiment,q,q,878.9035603000084
V3,29,25,Female,Left,297,Block 3,0.8340196999488398,0.025,true,tree,tree,occlusion,low,mask,partial viewing,few large,Stimulus\all_stim\occlusion\partialviewing\fewlarge\low\fewlarge_partialViewing_low_tree5.png,mask_img/000000032403.png,experiment,u,u,880.6095365000656
V3,29,25,Female,Left,298,Block 3,0.6080575999803841,0.05,true,banana,banana,occlusion,high,mask,partial viewing,few large,Stimulus\all_stim\occlusion\partialviewing\fewlarge\high\fewlarge_partialViewing_high_banana4.png,mask_img/000000012377.png,experiment,p,p,882.0635964999674
V3,29,25,Female,Left,299,Block 3,0.676865299930796,0.05,true,banana,banana,occlusion,low,mask,partial viewing,many small,Stimulus\all_stim\occlusion\partialviewing\manysmall\low\manysmall_partialViewing_low_banana6.png,mask_img/000000055460.png,experiment,p,p,883.5594247999834
V3,29,25,Female,Left,300,Block 3,0.7158903999952599,0.025,false,bird,cat,occlusion,high,mask,partial viewing,many small,Stimulus\all_stim\occlusion\partialviewing\manysmall\high\manysmall_partialViewing_high_bird9.png,mask_img/000000044946.png,experiment,o,w,885.0635945000686
V3,29,25,Female,Left,301,Block 3,0.6795992000261322,0.05,true,bus,bus,occlusion,high,mask,partial viewing,many small,Stimulus\all_stim\occlusion\partialviewing\manysmall\high\manysmall_partialViewing_high_bus2.png,mask_img/000000046852.png,experiment,i,i,886.4317131000571
V3,29,25,Female,Left,302,Block 3,0.7860980000114068,0.05,false,building,bird,occlusion,control,mask,partial viewing,many small,Stimulus\all_stim\occlusion\partialviewing\manysmall\control\manysmall_partialViewing_control_building5.png,mask_img/000000036004.png,experiment,w,e,888.351576599991
V3,29,25,Female,Left,303,Block 3,1.4666971999686211,0.1,false,firehydrant,tree,occlusion,high,mask,partial viewing,few large,Stimulus\all_stim\occlusion\partialviewing\fewlarge\high\fewlarge_partialViewing_high_firehydrant2.png,mask_img/000000018743.png,experiment,u,r,890.479661499965
V3,29,25,Female,Left,304,Block 3,0.6977847999660298,0.025,false,bird,cat,occlusion,high,mask,partial viewing,many small,Stimulus\all_stim\occlusion\partialviewing\manysmall\high\manysmall_partialViewing_high_bird5.png,mask_img/000000044437.png,experiment,o,w,892.0476556000067
V3,29,25,Female,Left,305,Block 3,1.0188799001043662,0.05,true,tree,tree,occlusion,high,mask,partial viewing,many small,Stimulus\all_stim\occlusion\partialviewing\manysmall\high\manysmall_partialViewing_high_tree10.png,mask_img/000000052818.png,experiment,u,u,894.0235910000047
V3,29,25,Female,Left,306,Block 3,0.7392034999793395,0.1,true,bus,bus,occlusion,control,mask,partial viewing,few large,Stimulus\all_stim\occlusion\partialviewing\fewlarge\control\fewlarge_partialViewing_control_bus2.png,mask_img/000000005359.png,experiment,i,i,895.7436292000348
V3,29,25,Female,Left,307,Block 3,0.8239636999787763,0.1,true,bus,bus,occlusion,low,mask,partial viewing,few large,Stimulus\all_stim\occlusion\partialviewing\fewlarge\low\fewlarge_partialViewing_low_bus2.png,mask_img/000000025858.png,experiment,i,i,897.6879019000335
V3,29,25,Female,Left,308,Block 3,0.826312999939546,0.025,true,firehydrant,firehydrant,occlusion,control,mask,partial viewing,many small,Stimulus\all_stim\occlusion\partialviewing\manysmall\control\manysmall_partialViewing_control_firehydrant7.png,mask_img/000000039475.png,experiment,r,r,899.4716268000193
V3,29,25,Female,Left,309,Block 3,0.7090974999591708,0.05,true,banana,banana,occlusion,high,mask,partial viewing,few large,Stimulus\all_stim\occlusion\partialviewing\fewlarge\high\fewlarge_partialViewing_high_banana1.png,mask_img/000000011754.png,experiment,p,p,901.1355626999866
V3,29,25,Female,Left,310,Block 3,0.86244189995341,0.05,true,tree,tree,occlusion,low,mask,partial viewing,many small,Stimulus\all_stim\occlusion\partialviewing\manysmall\low\manysmall_partialViewing_low_tree10.png,mask_img/000000062716.png,experiment,u,u,902.7534579000203
V3,29,25,Female,Left,311,Block 3,1.3611929999897256,0.1,true,bird,bird,occlusion,control,mask,partial viewing,many small,Stimulus\all_stim\occlusion\partialviewing\manysmall\control\manysmall_partialViewing_control_bird1.png,mask_img/000000034113.png,experiment,w,w,904.7930773000699
V3,29,25,Female,Left,312,Block 3,0.6387753000017256,0.025,true,banana,banana,occlusion,control,mask,partial viewing,many small,Stimulus\all_stim\occlusion\partialviewing\manysmall\control\manysmall_partialViewing_control_banana6.png,mask_img/000000033756.png,experiment,p,p,906.1196128999582
V3,29,25,Female,Left,313,Block 3,0.7682736999122426,0.025,true,bus,bus,occlusion,low,mask,partial viewing,many small,Stimulus\all_stim\occlusion\partialviewing\manysmall\low\manysmall_partialViewing_low_bus7.png,mask_img/000000058822.png,experiment,i,i,907.9197271000594
V3,29,25,Female,Left,314,Block 3,0.8581726000411436,0.025,true,tree,tree,occlusion,high,mask,partial viewing,many small,Stimulus\all_stim\occlusion\partialviewing\manysmall\high\manysmall_partialViewing_high_tree8.png,mask_img/000000054334.png,experiment,u,u,909.8796843000455
V3,29,25,Female,Left,315,Block 3,1.0451576999621466,0.1,true,bird,bird,occlusion,control,mask,partial viewing,many small,Stimulus\all_stim\occlusion\partialviewing\manysmall\control\manysmall_partialViewing_control_bird5.png,mask_img/000000034930.png,experiment,w,w,911.7759426999837
V3,29,25,Female,Left,316,Block 3,1.0168983999174088,0.1,true,cat,cat,occlusion,control,mask,partial viewing,few large,Stimulus\all_stim\occlusion\partialviewing\fewlarge\control\fewlarge_partialViewing_control_cat5.png,mask_img/000000006870.png,experiment,o,o,913.5675413999707
V3,29,25,Female,Left,317,Block 3,0.9760727999964729,0.05,true,building,building,occlusion,control,mask,partial viewing,few large,Stimulus\all_stim\occlusion\partialviewing\fewlarge\control\fewlarge_partialViewing_control_building6.png,mask_img/000000004739.png,experiment,e,e,915.5122057000408
V3,29,25,Female,Left,318,Block 3,1.0753985999617726,0.05,true,bird,bird,occlusion,control,mask,partial viewing,many small,Stimulus\all_stim\occlusion\partialviewing\manysmall\control\manysmall_partialViewing_control_bird9.png,mask_img/000000035514.png,experiment,w,w,917.3436722999904
V3,29,25,Female,Left,319,Block 3,0.8197496000211686,0.025,true,firehydrant,firehydrant,occlusion,control,mask,partial viewing,few large,Stimulus\all_stim\occlusion\partialviewing\fewlarge\control\fewlarge_partialViewing_control_firehydrant4.png,mask_img/000000007952.png,experiment,r,r,918.9440798000433
V3,29,25,Female,Left,320,Block 3,1.9691930999979377,0.1,true,building,building,occlusion,low,mask,partial viewing,many small,Stimulus\all_stim\occlusion\partialviewing\manysmall\low\manysmall_partialViewing_low_building2.png,mask_img/000000057551.png,experiment,e,e,923.8662223999854
V3,29,25,Female,Left,321,Block 3,1.228053400060162,0.025,false,banana,building,occlusion,high,mask,partial viewing,many small,Stimulus\all_stim\occlusion\partialviewing\manysmall\high\manysmall_partialViewing_high_banana10.png,mask_img/000000042196.png,experiment,e,p,925.8334941000212
V3,29,25,Female,Left,322,Block 3,0.9079656000249088,0.1,true,tree,tree,occlusion,control,mask,partial viewing,few large,Stimulus\all_stim\occlusion\partialviewing\fewlarge\control\fewlarge_partialViewing_control_tree6.png,mask_img/000000011328.png,experiment,u,u,927.75972490001
V3,29,25,Female,Left,323,Block 3,0.8934442999307066,0.1,false,cat,person,occlusion,low,mask,partial viewing,few large,Stimulus\all_stim\occlusion\partialviewing\fewlarge\low\fewlarge_partialViewing_low_cat9.png,mask_img/000000028231.png,experiment,q,o,929.7913898000261
V3,29,25,Female,Left,324,Block 3,0.8242629000451416,0.05,true,tree,tree,occlusion,control,mask,partial viewing,few large,Stimulus\all_stim\occlusion\partialviewing\fewlarge\control\fewlarge_partialViewing_control_tree7.png,mask_img/000000011504.png,experiment,u,u,931.4475127999904
V3,29,25,Female,Left,325,Block 3,0.8319670000346377,0.05,true,bird,bird,occlusion,control,mask,partial viewing,few large,Stimulus\all_stim\occlusion\partialviewing\fewlarge\control\fewlarge_partialViewing_control_bird1.png,mask_img/000000000873.png,experiment,w,w,933.1534730000421
V3,29,25,Female,Left,326,Block 3,0.7161636999808252,0.1,true,bird,bird,occlusion,low,mask,partial viewing,many small,Stimulus\all_stim\occlusion\partialviewing\manysmall\low\manysmall_partialViewing_low_bird6.png,mask_img/000000056007.png,experiment,w,w,934.8795747000258
V3,29,25,Female,Left,327,Block 3,0.7738069000188261,0.05,true,firehydrant,firehydrant,occlusion,low,mask,partial viewing,many small,Stimulus\all_stim\occlusion\partialviewing\manysmall\low\manysmall_partialViewing_low_firehydrant4.png,mask_img/000000060610.png,experiment,r,r,936.6396369000431
