Version,pt_num,Age,Gender,Handedness,trial_nbr,block_number,rt,soa,acc,category,choiced_category,manipulation,difficulty,mask,type_occl,size_occl,filename,mask_filename,task,pressed_key,correct_key,Experiment Duration
V3,26,22,Female,Right,1,Training,1.811355999991065,0.1,true,firehydrant,firehydrant,occlusion,control,mask,partial viewing,few large,Training_Stimulus\fewlarge_partialViewing_control_firehydrant90.png,mask_img/000000000459.png,training,e,e,130.655488599994
V3,26,22,Female,Right,2,Training,3.65913339999679,0.025,false,bus,building,occlusion,low,mask,partial viewing,many small,Training_Stimulus\manysmall_partialViewing_low_bus180.png,mask_img/000000006709.png,training,p,w,135.7336753999989
V3,26,22,Female,Right,3,Training,2.5243031999998493,0.1,true,cat,cat,occlusion,low,mask,partial viewing,many small,Training_Stimulus\manysmall_partialViewing_low_cat432.png,mask_img/000000006842.png,training,i,i,139.62425470000017
V3,26,22,Female,Right,4,Training,1.0988988999888534,0.05,true,bird,bird,occlusion,low,mask,partial viewing,few large,Training_Stimulus\fewlarge_partialViewing_low_bird4.png,mask_img/000000002774.png,training,o,o,141.90702329999476
V3,26,22,Female,Right,5,Training,1.2371032000082778,0.05,true,bird,bird,occlusion,high,mask,partial viewing,many small,Training_Stimulus\manysmall_partialViewing_high_bird4.png,mask_img/000000005418.png,training,o,o,144.46907869999995
V3,26,22,Female,Right,6,Training,1.906160299986368,0.05,false,person,firehydrant,occlusion,low,mask,partial viewing,few large,Training_Stimulus\fewlarge_partialViewing_low_person189.png,mask_img/000000003483.png,training,e,u,147.67393220000667
V3,26,22,Female,Right,7,Training,3.108184999990044,0.025,false,person,banana,occlusion,high,mask,partial viewing,many small,Training_Stimulus\manysmall_partialViewing_high_person189.png,mask_img/000000006153.png,training,r,u,152.29908070000238
V3,26,22,Female,Right,8,Training,1.231175799999619,0.05,true,cat,cat,occlusion,high,mask,partial viewing,few large,Training_Stimulus\fewlarge_partialViewing_high_cat432.png,mask_img/000000001647.png,training,i,i,154.73660740000196
V3,26,22,Female,Right,9,Training,1.645682799993665,0.1,false,tree,bird,occlusion,low,mask,partial viewing,few large,Training_Stimulus\fewlarge_partialViewing_low_tree9.png,mask_img/000000003694.png,training,o,q,157.90837580000516
V3,26,22,Female,Right,10,Training,1.3126276999973925,0.1,true,cat,cat,occlusion,high,mask,partial viewing,few large,Training_Stimulus\fewlarge_partialViewing_high_cat432.png,mask_img/000000001647.png,training,i,i,160.3004443999962
V3,26,22,Female,Right,11,Training,1.1112009000062244,0.025,true,person,person,occlusion,control,mask,partial viewing,many small,Training_Stimulus\manysmall_partialViewing_control_person189.png,mask_img/000000005142.png,training,u,u,162.83167519999552
V3,26,22,Female,Right,12,Training,1.0618912000063574,0.1,true,firehydrant,firehydrant,occlusion,low,mask,partial viewing,few large,Training_Stimulus\fewlarge_partialViewing_low_firehydrant90.png,mask_img/000000003225.png,training,e,e,165.00368969999545
V3,26,22,Female,Right,13,Training,0.9645108999975491,0.025,true,building,building,occlusion,low,mask,partial viewing,few large,Training_Stimulus\fewlarge_partialViewing_low_building24.png,mask_img/000000002822.png,training,p,p,167.28490379999857
V3,26,22,Female,Right,14,Training,1.261066100007156,0.025,true,cat,cat,occlusion,control,mask,partial viewing,many small,Training_Stimulus\manysmall_partialViewing_control_cat432.png,mask_img/000000005105.png,training,i,i,169.72233639999467
V3,26,22,Female,Right,15,Training,1.0505372999905376,0.05,true,firehydrant,firehydrant,occlusion,high,mask,partial viewing,few large,Training_Stimulus\fewlarge_partialViewing_high_firehydrant90.png,mask_img/000000001810.png,training,e,e,171.95848869999463
V3,26,22,Female,Right,16,Training,0.977628900000127,0.1,true,person,person,occlusion,high,mask,partial viewing,few large,Training_Stimulus\fewlarge_partialViewing_high_person189.png,mask_img/000000001997.png,training,u,u,174.23863190000702
V3,26,22,Female,Right,17,Training,0.9137788000080036,0.05,true,building,building,occlusion,high,mask,partial viewing,many small,Training_Stimulus\manysmall_partialViewing_high_building24.png,mask_img/000000005574.png,training,p,p,176.35046790000342
V3,26,22,Female,Right,1,Block 1,0.9549419999966631,0.1,true,firehydrant,firehydrant,occlusion,low,mask,partial viewing,many small,Stimulus\all_stim\occlusion\partialviewing\manysmall\low\manysmall_partialViewing_low_firehydrant2.png,mask_img/000000060548.png,experiment,e,e,190.75450779999665
V3,26,22,Female,Right,2,Block 1,1.2854221000015968,0.025,false,banana,bus,occlusion,low,mask,partial viewing,many small,Stimulus\all_stim\occlusion\partialviewing\manysmall\low\manysmall_partialViewing_low_banana3.png,mask_img/000000054875.png,experiment,w,r,192.84955009999976
V3,26,22,Female,Right,3,Block 1,1.011424900003476,0.05,true,bus,bus,occlusion,high,mask,partial viewing,few large,Stimulus\all_stim\occlusion\partialviewing\fewlarge\high\fewlarge_partialViewing_high_bus4.png,mask_img/000000015927.png,experiment,w,w,194.7221417999972
V3,26,22,Female,Right,4,Block 1,1.0174037999968277,0.1,true,firehydrant,firehydrant,occlusion,low,mask,partial viewing,few large,Stimulus\all_stim\occlusion\partialviewing\fewlarge\low\fewlarge_partialViewing_low_firehydrant7.png,mask_img/000000028885.png,experiment,e,e,196.61756699999387
V3,26,22,Female,Right,5,Block 1,1.5877131000015652,0.05,false,building,firehydrant,occlusion,low,mask,partial viewing,many small,Stimulus\all_stim\occlusion\partialviewing\manysmall\low\manysmall_partialViewing_low_building5.png,mask_img/000000057930.png,experiment,e,p,198.94579460000386
V3,26,22,Female,Right,6,Block 1,1.403186999988975,0.025,false,banana,building,occlusion,high,mask,partial viewing,many small,Stimulus\all_stim\occlusion\partialviewing\manysmall\high\manysmall_partialViewing_high_banana5.png,mask_img/000000042541.png,experiment,p,r,201.08957110000483
V3,26,22,Female,Right,7,Block 1,1.4778056999930413,0.1,true,banana,banana,occlusion,control,mask,partial viewing,few large,Stimulus\all_stim\occlusion\partialviewing\fewlarge\control\fewlarge_partialViewing_control_banana2.png,mask_img/000000000312.png,experiment,r,r,203.4175419999956
V3,26,22,Female,Right,8,Block 1,1.2121177000080934,0.1,true,building,building,occlusion,high,mask,partial viewing,many small,Stimulus\all_stim\occlusion\partialviewing\manysmall\high\manysmall_partialViewing_high_building1.png,mask_img/000000044950.png,experiment,p,p,205.4818019999948
V3,26,22,Female,Right,9,Block 1,1.212687499995809,0.05,true,banana,banana,occlusion,high,mask,partial viewing,many small,Stimulus\all_stim\occlusion\partialviewing\manysmall\high\manysmall_partialViewing_high_banana1.png,mask_img/000000041962.png,experiment,r,r,207.52153899999394
V3,26,22,Female,Right,10,Block 1,1.1994526000053156,0.1,true,building,building,occlusion,control,mask,partial viewing,few large,Stimulus\all_stim\occlusion\partialviewing\fewlarge\control\fewlarge_partialViewing_control_building2.png,mask_img/000000003483.png,experiment,p,p,209.73777269999846
V3,26,22,Female,Right,11,Block 1,1.0436309000069741,0.1,true,banana,banana,occlusion,low,mask,partial viewing,few large,Stimulus\all_stim\occlusion\partialviewing\fewlarge\low\fewlarge_partialViewing_low_banana5.png,mask_img/000000023100.png,experiment,r,r,211.56947709999804
V3,26,22,Female,Right,12,Block 1,1.0809657999925548,0.025,false,bus,building,occlusion,low,mask,partial viewing,many small,Stimulus\all_stim\occlusion\partialviewing\manysmall\low\manysmall_partialViewing_low_bus3.png,mask_img/000000058647.png,experiment,p,w,213.42574479999894
V3,26,22,Female,Right,13,Block 1,1.0108085999963805,0.025,true,bird,bird,occlusion,control,mask,partial viewing,few large,Stimulus\all_stim\occlusion\partialviewing\fewlarge\control\fewlarge_partialViewing_control_bird5.png,mask_img/000000002197.png,experiment,o,o,215.15349529999366
V3,26,22,Female,Right,14,Block 1,1.9547989999991842,0.1,true,firehydrant,firehydrant,occlusion,low,mask,partial viewing,few large,Stimulus\all_stim\occlusion\partialviewing\fewlarge\low\fewlarge_partialViewing_low_firehydrant3.png,mask_img/000000028518.png,experiment,e,e,217.86556289999862
V3,26,22,Female,Right,15,Block 1,1.2223316000017803,0.1,true,bus,bus,occlusion,control,mask,partial viewing,few large,Stimulus\all_stim\occlusion\partialviewing\fewlarge\control\fewlarge_partialViewing_control_bus8.png,mask_img/000000006153.png,experiment,w,w,219.8815523999947
V3,26,22,Female,Right,16,Block 1,2.012054100006935,0.05,false,banana,cat,occlusion,high,mask,partial viewing,many small,Stimulus\all_stim\occlusion\partialviewing\manysmall\high\manysmall_partialViewing_high_banana7.png,mask_img/000000043024.png,experiment,i,r,222.72158719999425
V3,26,22,Female,Right,17,Block 1,1.0078706999920541,0.025,true,building,building,occlusion,control,mask,partial viewing,many small,Stimulus\all_stim\occlusion\partialviewing\manysmall\control\manysmall_partialViewing_control_building2.png,mask_img/000000035864.png,experiment,p,p,224.39368140000443
V3,26,22,Female,Right,18,Block 1,1.6800226000050316,0.025,false,person,cat,occlusion,high,mask,partial viewing,many small,Stimulus\all_stim\occlusion\partialviewing\manysmall\high\manysmall_partialViewing_high_person5.png,mask_img/000000052250.png,experiment,i,u,227.2175309000013
V3,26,22,Female,Right,19,Block 1,1.056523899998865,0.05,true,person,person,occlusion,high,mask,partial viewing,few large,Stimulus\all_stim\occlusion\partialviewing\fewlarge\high\fewlarge_partialViewing_high_person5.png,mask_img/000000020381.png,experiment,u,u,228.96153860000777
V3,26,22,Female,Right,20,Block 1,0.993723499996122,0.1,true,cat,cat,occlusion,low,mask,partial viewing,many small,Stimulus\all_stim\occlusion\partialviewing\manysmall\low\manysmall_partialViewing_low_cat9.png,mask_img/000000060387.png,experiment,i,i,230.7375774999964
V3,26,22,Female,Right,21,Block 1,1.5168210999981966,0.025,true,cat,cat,occlusion,high,mask,partial viewing,many small,Stimulus\all_stim\occlusion\partialviewing\manysmall\high\manysmall_partialViewing_high_cat7.png,mask_img/000000049602.png,experiment,i,i,233.3535198000027
V3,26,22,Female,Right,22,Block 1,1.672608399996534,0.025,false,tree,bird,occlusion,high,mask,partial viewing,many small,Stimulus\all_stim\occlusion\partialviewing\manysmall\high\manysmall_partialViewing_high_tree6.png,mask_img/000000053539.png,experiment,o,q,236.12151759999688
V3,26,22,Female,Right,23,Block 1,1.013198000000557,0.025,true,cat,cat,occlusion,control,mask,partial viewing,many small,Stimulus\all_stim\occlusion\partialviewing\manysmall\control\manysmall_partialViewing_control_cat4.png,mask_img/000000038479.png,experiment,i,i,237.985752099994
V3,26,22,Female,Right,24,Block 1,1.1860011999960989,0.05,true,tree,tree,occlusion,control,mask,partial viewing,few large,Stimulus\all_stim\occlusion\partialviewing\fewlarge\control\fewlarge_partialViewing_control_tree10.png,mask_img/000000010414.png,experiment,q,q,240.3055314999947
V3,26,22,Female,Right,25,Block 1,1.3991756000032183,0.1,true,cat,cat,occlusion,high,mask,partial viewing,few large,Stimulus\all_stim\occlusion\partialviewing\fewlarge\high\fewlarge_partialViewing_high_cat3.png,mask_img/000000017356.png,experiment,i,i,242.6898089000024
V3,26,22,Female,Right,26,Block 1,1.161183300006087,0.025,true,bird,bird,occlusion,high,mask,partial viewing,few large,Stimulus\all_stim\occlusion\partialviewing\fewlarge\high\fewlarge_partialViewing_high_bird2.png,mask_img/000000013169.png,experiment,o,o,244.84182889999647
V3,26,22,Female,Right,27,Block 1,1.0500012999982573,0.05,true,building,building,occlusion,low,mask,partial viewing,many small,Stimulus\all_stim\occlusion\partialviewing\manysmall\low\manysmall_partialViewing_low_building8.png,mask_img/000000058073.png,experiment,p,p,246.6735975000047
V3,26,22,Female,Right,28,Block 1,1.4337518999964232,0.05,true,banana,banana,occlusion,low,mask,partial viewing,few large,Stimulus\all_stim\occlusion\partialviewing\fewlarge\low\fewlarge_partialViewing_low_banana8.png,mask_img/000000023656.png,experiment,r,r,248.79383830000006
V3,26,22,Female,Right,29,Block 1,1.4970037000020966,0.05,true,cat,cat,occlusion,high,mask,partial viewing,many small,Stimulus\all_stim\occlusion\partialviewing\manysmall\high\manysmall_partialViewing_high_cat10.png,mask_img/000000048929.png,experiment,i,i,251.20953239999653
V3,26,22,Female,Right,30,Block 1,1.0804281999880914,0.05,true,building,building,occlusion,low,mask,partial viewing,few large,Stimulus\all_stim\occlusion\partialviewing\fewlarge\low\fewlarge_partialViewing_low_building9.png,mask_img/000000025516.png,experiment,p,p,253.41751060000388
V3,26,22,Female,Right,31,Block 1,0.9643557999952463,0.05,true,cat,cat,occlusion,low,mask,partial viewing,few large,Stimulus\all_stim\occlusion\partialviewing\fewlarge\low\fewlarge_partialViewing_low_cat8.png,mask_img/000000028171.png,experiment,i,i,255.50769509999373
V3,26,22,Female,Right,32,Block 1,1.3954936999944039,0.025,true,bus,bus,occlusion,control,mask,partial viewing,few large,Stimulus\all_stim\occlusion\partialviewing\fewlarge\control\fewlarge_partialViewing_control_bus4.png,mask_img/000000005574.png,experiment,w,w,258.0175501000049
V3,26,22,Female,Right,33,Block 1,0.8398477000009734,0.025,true,firehydrant,firehydrant,occlusion,control,mask,partial viewing,few large,Stimulus\all_stim\occlusion\partialviewing\fewlarge\control\fewlarge_partialViewing_control_firehydrant10.png,mask_img/000000007758.png,experiment,e,e,259.94536650000373
V3,26,22,Female,Right,34,Block 1,1.168141200003447,0.1,true,banana,banana,occlusion,high,mask,partial viewing,many small,Stimulus\all_stim\occlusion\partialviewing\manysmall\high\manysmall_partialViewing_high_banana8.png,mask_img/000000043291.png,experiment,r,r,262.22600619999866
V3,26,22,Female,Right,35,Block 1,0.9856995000009192,0.1,true,building,building,occlusion,high,mask,partial viewing,many small,Stimulus\all_stim\occlusion\partialviewing\manysmall\high\manysmall_partialViewing_high_building5.png,mask_img/000000046029.png,experiment,p,p,264.10612880000554
V3,26,22,Female,Right,36,Block 1,1.2237998000055086,0.05,true,cat,cat,occlusion,control,mask,partial viewing,many small,Stimulus\all_stim\occlusion\partialviewing\manysmall\control\manysmall_partialViewing_control_cat7.png,mask_img/000000038798.png,experiment,i,i,266.37782080000034
V3,26,22,Female,Right,37,Block 1,1.0669546999997692,0.05,true,cat,cat,occlusion,low,mask,partial viewing,many small,Stimulus\all_stim\occlusion\partialviewing\manysmall\low\manysmall_partialViewing_low_cat4.png,mask_img/000000059483.png,experiment,i,i,268.4335076999996
V3,26,22,Female,Right,38,Block 1,1.2181382999988273,0.05,true,bus,bus,occlusion,high,mask,partial viewing,few large,Stimulus\all_stim\occlusion\partialviewing\fewlarge\high\fewlarge_partialViewing_high_bus9.png,mask_img/000000016764.png,experiment,w,w,270.50575850000314
V3,26,22,Female,Right,39,Block 1,2.1057544000068447,0.025,true,banana,banana,occlusion,low,mask,partial viewing,many small,Stimulus\all_stim\occlusion\partialviewing\manysmall\low\manysmall_partialViewing_low_banana8.png,mask_img/000000055630.png,experiment,r,r,273.713769199996
V3,26,22,Female,Right,40,Block 1,1.092493200005265,0.1,true,firehydrant,firehydrant,occlusion,high,mask,partial viewing,few large,Stimulus\all_stim\occlusion\partialviewing\fewlarge\high\fewlarge_partialViewing_high_firehydrant1.png,mask_img/000000017944.png,experiment,e,e,275.7297466000018
V3,26,22,Female,Right,41,Block 1,1.0918359000061173,0.05,true,bird,bird,occlusion,control,mask,partial viewing,few large,Stimulus\all_stim\occlusion\partialviewing\fewlarge\control\fewlarge_partialViewing_control_bird8.png,mask_img/000000002822.png,experiment,o,o,277.8094648999977
V3,26,22,Female,Right,42,Block 1,1.0170121999981347,0.05,true,firehydrant,firehydrant,occlusion,low,mask,partial viewing,few large,Stimulus\all_stim\occlusion\partialviewing\fewlarge\low\fewlarge_partialViewing_low_firehydrant5.png,mask_img/000000028698.png,experiment,e,e,279.5698157000006
V3,26,22,Female,Right,43,Block 1,1.2001087000098778,0.1,true,person,person,occlusion,control,mask,partial viewing,few large,Stimulus\all_stim\occlusion\partialviewing\fewlarge\control\fewlarge_partialViewing_control_person7.png,mask_img/000000009648.png,experiment,u,u,281.425539799995
V3,26,22,Female,Right,44,Block 1,0.9348482000059448,0.025,true,firehydrant,firehydrant,occlusion,control,mask,partial viewing,many small,Stimulus\all_stim\occlusion\partialviewing\manysmall\control\manysmall_partialViewing_control_firehydrant2.png,mask_img/000000039089.png,experiment,e,e,283.4654307000019
V3,26,22,Female,Right,45,Block 1,1.625281000000541,0.025,false,cat,banana,occlusion,low,mask,partial viewing,few large,Stimulus\all_stim\occlusion\partialviewing\fewlarge\low\fewlarge_partialViewing_low_cat4.png,mask_img/000000027675.png,experiment,r,i,285.7696605999954
V3,26,22,Female,Right,46,Block 1,1.1193061000085436,0.025,true,person,person,occlusion,control,mask,partial viewing,few large,Stimulus\all_stim\occlusion\partialviewing\fewlarge\control\fewlarge_partialViewing_control_person7.png,mask_img/000000009648.png,experiment,u,u,287.9616015000065
V3,26,22,Female,Right,47,Block 1,2.9258205000078306,0.1,false,bird,banana,occlusion,low,mask,partial viewing,many small,Stimulus\all_stim\occlusion\partialviewing\manysmall\low\manysmall_partialViewing_low_bird4.png,mask_img/000000055859.png,experiment,r,o,291.76171580000664
V3,26,22,Female,Right,48,Block 1,1.0102250000054482,0.05,true,bird,bird,occlusion,control,mask,partial viewing,many small,Stimulus\all_stim\occlusion\partialviewing\manysmall\control\manysmall_partialViewing_control_bird8.png,mask_img/000000035190.png,experiment,o,o,293.47345309999946
V3,26,22,Female,Right,49,Block 1,1.0046389999915846,0.05,true,building,building,occlusion,high,mask,partial viewing,many small,Stimulus\all_stim\occlusion\partialviewing\manysmall\high\manysmall_partialViewing_high_building8.png,mask_img/000000046245.png,experiment,p,p,295.15368339999986
V3,26,22,Female,Right,50,Block 1,1.1644357000041055,0.1,true,tree,tree,occlusion,control,mask,partial viewing,few large,Stimulus\all_stim\occlusion\partialviewing\fewlarge\control\fewlarge_partialViewing_control_tree2.png,mask_img/000000010560.png,experiment,q,q,297.3215085999982
V3,26,22,Female,Right,51,Block 1,1.4458421000017552,0.1,true,cat,cat,occlusion,control,mask,partial viewing,few large,Stimulus\all_stim\occlusion\partialviewing\fewlarge\control\fewlarge_partialViewing_control_cat6.png,mask_img/000000007179.png,experiment,i,i,299.82770080000046
V3,26,22,Female,Right,52,Block 1,1.7011028999986593,0.025,true,tree,tree,occlusion,low,mask,partial viewing,few large,Stimulus\all_stim\occlusion\partialviewing\fewlarge\low\fewlarge_partialViewing_low_tree3.png,mask_img/000000031717.png,experiment,q,q,302.3772803000029
V3,26,22,Female,Right,53,Block 1,0.9792343000008259,0.025,true,bird,bird,occlusion,low,mask,partial viewing,few large,Stimulus\all_stim\occlusion\partialviewing\fewlarge\low\fewlarge_partialViewing_low_bird7.png,mask_img/000000024403.png,experiment,o,o,304.21784139999363
V3,26,22,Female,Right,54,Block 1,1.5943146999925375,0.025,true,firehydrant,firehydrant,occlusion,control,mask,partial viewing,few large,Stimulus\all_stim\occlusion\partialviewing\fewlarge\control\fewlarge_partialViewing_control_firehydrant3.png,mask_img/000000007946.png,experiment,e,e,306.4974868999998
V3,26,22,Female,Right,55,Block 1,0.8968856999999844,0.025,true,bus,bus,occlusion,low,mask,partial viewing,few large,Stimulus\all_stim\occlusion\partialviewing\fewlarge\low\fewlarge_partialViewing_low_bus7.png,mask_img/000000026720.png,experiment,w,w,308.1216382999992
V3,26,22,Female,Right,56,Block 1,0.8711743999883765,0.1,true,bus,bus,occlusion,low,mask,partial viewing,many small,Stimulus\all_stim\occlusion\partialviewing\manysmall\low\manysmall_partialViewing_low_bus7.png,mask_img/000000058822.png,experiment,w,w,309.7778025000007
V3,26,22,Female,Right,57,Block 1,0.8616173000045819,0.1,true,firehydrant,firehydrant,occlusion,high,mask,partial viewing,many small,Stimulus\all_stim\occlusion\partialviewing\manysmall\high\manysmall_partialViewing_high_firehydrant4.png,mask_img/000000050412.png,experiment,e,e,311.48147929999686
V3,26,22,Female,Right,58,Block 1,0.8863292000023648,0.1,true,bus,bus,occlusion,high,mask,partial viewing,few large,Stimulus\all_stim\occlusion\partialviewing\fewlarge\high\fewlarge_partialViewing_high_bus2.png,mask_img/000000015862.png,experiment,w,w,313.2655114999943
V3,26,22,Female,Right,59,Block 1,1.0949359000078402,0.1,true,person,person,occlusion,high,mask,partial viewing,few large,Stimulus\all_stim\occlusion\partialviewing\fewlarge\high\fewlarge_partialViewing_high_person3.png,mask_img/000000020147.png,experiment,u,u,315.0337850000069
V3,26,22,Female,Right,60,Block 1,1.2812187999952585,0.025,true,banana,banana,occlusion,control,mask,partial viewing,many small,Stimulus\all_stim\occlusion\partialviewing\manysmall\control\manysmall_partialViewing_control_banana1.png,mask_img/000000033073.png,experiment,r,r,317.2414015999966
V3,26,22,Female,Right,61,Block 1,0.9389143000007607,0.1,true,bird,bird,occlusion,control,mask,partial viewing,few large,Stimulus\all_stim\occlusion\partialviewing\fewlarge\control\fewlarge_partialViewing_control_bird2.png,mask_img/000000001647.png,experiment,o,o,319.02543579999474
V3,26,22,Female,Right,62,Block 1,1.0285122000059346,0.1,true,tree,tree,occlusion,control,mask,partial viewing,many small,Stimulus\all_stim\occlusion\partialviewing\manysmall\control\manysmall_partialViewing_control_tree9.png,mask_img/000000041840.png,experiment,q,q,320.8575328000006
V3,26,22,Female,Right,63,Block 1,1.9255187999951886,0.1,false,firehydrant,banana,occlusion,high,mask,partial viewing,many small,Stimulus\all_stim\occlusion\partialviewing\manysmall\high\manysmall_partialViewing_high_firehydrant10.png,mask_img/000000050148.png,experiment,r,e,323.6655025000073
V3,26,22,Female,Right,64,Block 1,1.2626619000075152,0.025,true,bus,bus,occlusion,low,mask,partial viewing,few large,Stimulus\all_stim\occlusion\partialviewing\fewlarge\low\fewlarge_partialViewing_low_bus3.png,mask_img/000000025997.png,experiment,w,w,325.7694906999968
V3,26,22,Female,Right,65,Block 1,1.066371100008837,0.1,true,tree,tree,occlusion,low,mask,partial viewing,few large,Stimulus\all_stim\occlusion\partialviewing\fewlarge\low\fewlarge_partialViewing_low_tree9.png,mask_img/000000032965.png,experiment,q,q,327.7774209000054
V3,26,22,Female,Right,66,Block 1,1.3161383000115165,0.05,true,bird,bird,occlusion,high,mask,partial viewing,few large,Stimulus\all_stim\occlusion\partialviewing\fewlarge\high\fewlarge_partialViewing_high_bird2.png,mask_img/000000013169.png,experiment,o,o,329.84153000000515
V3,26,22,Female,Right,67,Block 1,1.1203623000037624,0.1,false,banana,bird,occlusion,high,mask,partial viewing,few large,Stimulus\all_stim\occlusion\partialviewing\fewlarge\high\fewlarge_partialViewing_high_banana7.png,mask_img/000000012567.png,experiment,o,r,331.6177553000016
V3,26,22,Female,Right,68,Block 1,0.9911553000129061,0.05,true,building,building,occlusion,control,mask,partial viewing,few large,Stimulus\all_stim\occlusion\partialviewing\fewlarge\control\fewlarge_partialViewing_control_building2.png,mask_img/000000003483.png,experiment,p,p,333.30569860000105
V3,26,22,Female,Right,69,Block 1,1.6058087999990676,0.025,true,cat,cat,occlusion,high,mask,partial viewing,few large,Stimulus\all_stim\occlusion\partialviewing\fewlarge\high\fewlarge_partialViewing_high_cat4.png,mask_img/000000017364.png,experiment,i,i,335.723424900003
V3,26,22,Female,Right,70,Block 1,1.2243705000000773,0.1,true,tree,tree,occlusion,high,mask,partial viewing,few large,Stimulus\all_stim\occlusion\partialviewing\fewlarge\high\fewlarge_partialViewing_high_tree7.png,mask_img/000000022256.png,experiment,q,q,337.88134819999686
V3,26,22,Female,Right,71,Block 1,1.0412768999958644,0.025,true,tree,tree,occlusion,control,mask,partial viewing,many small,Stimulus\all_stim\occlusion\partialviewing\manysmall\control\manysmall_partialViewing_control_tree8.png,mask_img/000000041577.png,experiment,q,q,339.68138069999986
V3,26,22,Female,Right,72,Block 1,0.9468974000046728,0.05,true,tree,tree,occlusion,high,mask,partial viewing,few large,Stimulus\all_stim\occlusion\partialviewing\fewlarge\high\fewlarge_partialViewing_high_tree5.png,mask_img/000000022102.png,experiment,q,q,341.71345749999455
V3,26,22,Female,Right,73,Block 1,1.2206703999981983,0.1,true,building,building,occlusion,low,mask,partial viewing,few large,Stimulus\all_stim\occlusion\partialviewing\fewlarge\low\fewlarge_partialViewing_low_building3.png,mask_img/000000024808.png,experiment,p,p,343.63367939999443
V3,26,22,Female,Right,74,Block 1,1.7595117000018945,0.05,true,banana,banana,occlusion,low,mask,partial viewing,few large,Stimulus\all_stim\occlusion\partialviewing\fewlarge\low\fewlarge_partialViewing_low_banana2.png,mask_img/000000022983.png,experiment,r,r,346.11373009999807
V3,26,22,Female,Right,75,Block 1,1.3526290000008885,0.05,true,cat,cat,occlusion,control,mask,partial viewing,few large,Stimulus\all_stim\occlusion\partialviewing\fewlarge\control\fewlarge_partialViewing_control_cat6.png,mask_img/000000007179.png,experiment,i,i,348.45033700000204
V3,26,22,Female,Right,76,Block 1,1.096808800008148,0.1,true,building,building,occlusion,control,mask,partial viewing,many small,Stimulus\all_stim\occlusion\partialviewing\manysmall\control\manysmall_partialViewing_control_building8.png,mask_img/000000036091.png,experiment,p,p,350.3854926000058
V3,26,22,Female,Right,77,Block 1,1.4865964999917196,0.025,true,firehydrant,firehydrant,occlusion,control,mask,partial viewing,few large,Stimulus\all_stim\occlusion\partialviewing\fewlarge\control\fewlarge_partialViewing_control_firehydrant6.png,mask_img/000000008025.png,experiment,e,e,352.8816689999949
V3,26,22,Female,Right,78,Block 1,1.1349525999976322,0.1,false,person,bird,occlusion,high,mask,partial viewing,many small,Stimulus\all_stim\occlusion\partialviewing\manysmall\high\manysmall_partialViewing_high_person8.png,mask_img/000000052606.png,experiment,o,u,354.7535829999979
V3,26,22,Female,Right,79,Block 1,1.5613959000038449,0.025,false,firehydrant,person,occlusion,high,mask,partial viewing,many small,Stimulus\all_stim\occlusion\partialviewing\manysmall\high\manysmall_partialViewing_high_firehydrant1.png,mask_img/000000049987.png,experiment,u,e,357.3777609999961
V3,26,22,Female,Right,80,Block 1,0.9480115999904228,0.05,true,tree,tree,occlusion,control,mask,partial viewing,many small,Stimulus\all_stim\occlusion\partialviewing\manysmall\control\manysmall_partialViewing_control_tree3.png,mask_img/000000041014.png,experiment,q,q,359.2654528999992
V3,26,22,Female,Right,81,Block 1,1.0835888000001432,0.025,true,bus,bus,occlusion,control,mask,partial viewing,few large,Stimulus\all_stim\occlusion\partialviewing\fewlarge\control\fewlarge_partialViewing_control_bus6.png,mask_img/000000005862.png,experiment,w,w,361.3856155999965
V3,26,22,Female,Right,82,Block 1,1.1179505999898538,0.05,true,bus,bus,occlusion,high,mask,partial viewing,many small,Stimulus\all_stim\occlusion\partialviewing\manysmall\high\manysmall_partialViewing_high_bus6.png,mask_img/000000047407.png,experiment,w,w,363.1693399000069
V3,26,22,Female,Right,83,Block 1,0.9774731999932555,0.025,true,person,person,occlusion,low,mask,partial viewing,many small,Stimulus\all_stim\occlusion\partialviewing\manysmall\low\manysmall_partialViewing_low_person7.png,mask_img/000000062350.png,experiment,u,u,365.1694420999993
V3,26,22,Female,Right,84,Block 1,1.0609534999966854,0.1,true,building,building,occlusion,low,mask,partial viewing,many small,Stimulus\all_stim\occlusion\partialviewing\manysmall\low\manysmall_partialViewing_low_building6.png,mask_img/000000057979.png,experiment,p,p,366.88183529999515
V3,26,22,Female,Right,85,Block 1,1.4555950000067241,0.1,true,bus,bus,occlusion,low,mask,partial viewing,few large,Stimulus\all_stim\occlusion\partialviewing\fewlarge\low\fewlarge_partialViewing_low_bus8.png,mask_img/000000026782.png,experiment,w,w,369.49773119999736
V3,26,22,Female,Right,86,Block 1,0.9675503000034951,0.025,true,bus,bus,occlusion,control,mask,partial viewing,few large,Stimulus\all_stim\occlusion\partialviewing\fewlarge\control\fewlarge_partialViewing_control_bus10.png,mask_img/000000005282.png,experiment,w,w,371.44159590000345
V3,26,22,Female,Right,87,Block 1,1.6832886999909533,0.05,false,person,tree,occlusion,high,mask,partial viewing,many small,Stimulus\all_stim\occlusion\partialviewing\manysmall\high\manysmall_partialViewing_high_person1.png,mask_img/000000051310.png,experiment,q,u,373.8096641000011
V3,26,22,Female,Right,88,Block 1,1.2875912000017706,0.05,true,firehydrant,firehydrant,occlusion,control,mask,partial viewing,many small,Stimulus\all_stim\occlusion\partialviewing\manysmall\control\manysmall_partialViewing_control_firehydrant3.png,mask_img/000000039113.png,experiment,e,e,376.0896356000012
V3,26,22,Female,Right,89,Block 1,1.042773400011356,0.1,true,bus,bus,occlusion,low,mask,partial viewing,many small,Stimulus\all_stim\occlusion\partialviewing\manysmall\low\manysmall_partialViewing_low_bus8.png,mask_img/000000058873.png,experiment,w,w,378.04953560000286
V3,26,22,Female,Right,90,Block 1,1.0371085999940988,0.025,true,bus,bus,occlusion,high,mask,partial viewing,few large,Stimulus\all_stim\occlusion\partialviewing\fewlarge\high\fewlarge_partialViewing_high_bus3.png,mask_img/000000015908.png,experiment,w,w,380.089452500004
V3,26,22,Female,Right,91,Block 1,0.9421450999943772,0.05,true,building,building,occlusion,control,mask,partial viewing,few large,Stimulus\all_stim\occlusion\partialviewing\fewlarge\control\fewlarge_partialViewing_control_building1.png,mask_img/000000003084.png,experiment,p,p,382.1054870999942
V3,26,22,Female,Right,92,Block 1,1.5694788999971934,0.025,false,banana,bird,occlusion,low,mask,partial viewing,many small,Stimulus\all_stim\occlusion\partialviewing\manysmall\low\manysmall_partialViewing_low_banana6.png,mask_img/000000055460.png,experiment,o,r,384.8257222999964
V3,26,22,Female,Right,93,Block 1,1.168113399995491,0.05,true,firehydrant,firehydrant,occlusion,high,mask,partial viewing,few large,Stimulus\all_stim\occlusion\partialviewing\fewlarge\high\fewlarge_partialViewing_high_firehydrant7.png,mask_img/000000019463.png,experiment,e,e,387.0176708000072
V3,26,22,Female,Right,94,Block 1,0.8104596999910427,0.05,true,building,building,occlusion,control,mask,partial viewing,many small,Stimulus\all_stim\occlusion\partialviewing\manysmall\control\manysmall_partialViewing_control_building10.png,mask_img/000000035857.png,experiment,p,p,388.8333755000058
V3,26,22,Female,Right,95,Block 1,0.7260192999965511,0.1,true,building,building,occlusion,high,mask,partial viewing,many small,Stimulus\all_stim\occlusion\partialviewing\manysmall\high\manysmall_partialViewing_high_building6.png,mask_img/000000046155.png,experiment,p,p,390.5296632999962
V3,26,22,Female,Right,96,Block 1,0.8048894999956246,0.05,true,cat,cat,occlusion,control,mask,partial viewing,few large,Stimulus\all_stim\occlusion\partialviewing\fewlarge\control\fewlarge_partialViewing_control_cat8.png,mask_img/000000007393.png,experiment,i,i,392.0654193999944
V3,26,22,Female,Right,97,Block 1,0.9374921999988146,0.1,true,bird,bird,occlusion,control,mask,partial viewing,few large,Stimulus\all_stim\occlusion\partialviewing\fewlarge\control\fewlarge_partialViewing_control_bird7.png,mask_img/000000002774.png,experiment,o,o,393.7053469999955
V3,26,22,Female,Right,98,Block 1,0.9629147999949055,0.05,true,tree,tree,occlusion,high,mask,partial viewing,many small,Stimulus\all_stim\occlusion\partialviewing\manysmall\high\manysmall_partialViewing_high_tree3.png,mask_img/000000052936.png,experiment,q,q,395.6418641000055
V3,26,22,Female,Right,99,Block 1,2.0023522000119556,0.1,true,banana,banana,occlusion,high,mask,partial viewing,many small,Stimulus\all_stim\occlusion\partialviewing\manysmall\high\manysmall_partialViewing_high_banana4.png,mask_img/000000042499.png,experiment,r,r,398.6498547999945
V3,26,22,Female,Right,100,Block 1,0.9105870000057621,0.1,true,banana,banana,occlusion,high,mask,partial viewing,few large,Stimulus\all_stim\occlusion\partialviewing\fewlarge\high\fewlarge_partialViewing_high_banana6.png,mask_img/000000012548.png,experiment,r,r,400.3777897999971
V3,26,22,Female,Right,101,Block 1,0.6938246999925468,0.05,true,tree,tree,occlusion,control,mask,partial viewing,many small,Stimulus\all_stim\occlusion\partialviewing\manysmall\control\manysmall_partialViewing_control_tree7.png,mask_img/000000041434.png,experiment,q,q,401.9456296999997
V3,26,22,Female,Right,102,Block 1,0.8844157000130508,0.1,true,cat,cat,occlusion,low,mask,partial viewing,many small,Stimulus\all_stim\occlusion\partialviewing\manysmall\low\manysmall_partialViewing_low_cat1.png,mask_img/000000059036.png,experiment,i,i,403.5222025999974
V3,26,22,Female,Right,103,Block 1,0.764936999999918,0.025,true,bus,bus,occlusion,control,mask,partial viewing,few large,Stimulus\all_stim\occlusion\partialviewing\fewlarge\control\fewlarge_partialViewing_control_bus5.png,mask_img/000000005615.png,experiment,w,w,405.1056755000027
V3,26,22,Female,Right,104,Block 1,2.0516516999923624,0.1,true,cat,cat,occlusion,control,mask,partial viewing,many small,Stimulus\all_stim\occlusion\partialviewing\manysmall\control\manysmall_partialViewing_control_cat6.png,mask_img/000000038753.png,experiment,i,i,408.21757849999995
V3,26,22,Female,Right,105,Block 1,1.4601021999988006,0.1,true,tree,tree,occlusion,low,mask,partial viewing,many small,Stimulus\all_stim\occlusion\partialviewing\manysmall\low\manysmall_partialViewing_low_tree5.png,mask_img/000000063482.png,experiment,q,q,410.59366719999525
V3,26,22,Female,Right,106,Block 1,1.0064534999983152,0.025,true,bus,bus,occlusion,high,mask,partial viewing,few large,Stimulus\all_stim\occlusion\partialviewing\fewlarge\high\fewlarge_partialViewing_high_bus1.png,mask_img/000000015645.png,experiment,w,w,412.27341989999695
V3,26,22,Female,Right,107,Block 1,0.8618052000092575,0.025,true,bird,bird,occlusion,low,mask,partial viewing,many small,Stimulus\all_stim\occlusion\partialviewing\manysmall\low\manysmall_partialViewing_low_bird7.png,mask_img/000000056036.png,experiment,o,o,414.1213374000072
V3,26,22,Female,Right,108,Block 1,1.1033366000046954,0.025,false,bird,tree,occlusion,low,mask,partial viewing,many small,Stimulus\all_stim\occlusion\partialviewing\manysmall\low\manysmall_partialViewing_low_bird1.png,mask_img/000000055694.png,experiment,q,o,416.09774870000547
V3,26,22,Female,Right,109,Block 1,1.404040299996268,0.05,true,banana,banana,occlusion,low,mask,partial viewing,few large,Stimulus\all_stim\occlusion\partialviewing\fewlarge\low\fewlarge_partialViewing_low_banana6.png,mask_img/000000023137.png,experiment,r,r,418.28163310000673
V3,26,22,Female,Right,110,Block 1,1.5981606999994256,0.025,false,bird,building,occlusion,high,mask,partial viewing,many small,Stimulus\all_stim\occlusion\partialviewing\manysmall\high\manysmall_partialViewing_high_bird5.png,mask_img/000000044437.png,experiment,p,o,420.56165560000227
V3,26,22,Female,Right,111,Block 1,0.9586144000058994,0.025,true,building,building,occlusion,low,mask,partial viewing,many small,Stimulus\all_stim\occlusion\partialviewing\manysmall\low\manysmall_partialViewing_low_building5.png,mask_img/000000057930.png,experiment,p,p,422.53737590000674
V3,26,22,Female,Right,112,Block 1,1.1843101999984356,0.05,true,firehydrant,firehydrant,occlusion,control,mask,partial viewing,many small,Stimulus\all_stim\occlusion\partialviewing\manysmall\control\manysmall_partialViewing_control_firehydrant9.png,mask_img/000000039643.png,experiment,e,e,424.8580606000032
V3,26,22,Female,Right,113,Block 1,1.488921999989543,0.1,false,cat,banana,occlusion,high,mask,partial viewing,few large,Stimulus\all_stim\occlusion\partialviewing\fewlarge\high\fewlarge_partialViewing_high_cat7.png,mask_img/000000017580.png,experiment,r,i,427.1773608999938
V3,26,22,Female,Right,114,Block 1,0.905186899995897,0.05,true,building,building,occlusion,control,mask,partial viewing,few large,Stimulus\all_stim\occlusion\partialviewing\fewlarge\control\fewlarge_partialViewing_control_building7.png,mask_img/000000004936.png,experiment,p,p,429.2095119000005
V3,26,22,Female,Right,115,Block 1,1.852349900000263,0.05,false,firehydrant,building,occlusion,high,mask,partial viewing,many small,Stimulus\all_stim\occlusion\partialviewing\manysmall\high\manysmall_partialViewing_high_firehydrant9.png,mask_img/000000051164.png,experiment,p,e,432.0257249999995
V3,26,22,Female,Right,116,Block 1,1.0928420000127517,0.05,true,cat,cat,occlusion,control,mask,partial viewing,many small,Stimulus\all_stim\occlusion\partialviewing\manysmall\control\manysmall_partialViewing_control_cat8.png,mask_img/000000038817.png,experiment,i,i,433.9453097000078
V3,26,22,Female,Right,117,Block 1,1.2604056999989552,0.05,true,firehydrant,firehydrant,occlusion,high,mask,partial viewing,few large,Stimulus\all_stim\occlusion\partialviewing\fewlarge\high\fewlarge_partialViewing_high_firehydrant4.png,mask_img/000000018882.png,experiment,e,e,436.10599450000154
V3,26,22,Female,Right,118,Block 1,0.8178662999998778,0.1,true,banana,banana,occlusion,low,mask,partial viewing,many small,Stimulus\all_stim\occlusion\partialviewing\manysmall\low\manysmall_partialViewing_low_banana4.png,mask_img/000000055202.png,experiment,r,r,437.6975880999962
V3,26,22,Female,Right,119,Block 1,0.6861878999916371,0.05,true,bird,bird,occlusion,control,mask,partial viewing,few large,Stimulus\all_stim\occlusion\partialviewing\fewlarge\control\fewlarge_partialViewing_control_bird3.png,mask_img/000000001810.png,experiment,o,o,439.2094364999939
V3,26,22,Female,Right,120,Block 1,0.6136725000105798,0.025,true,banana,banana,occlusion,control,mask,partial viewing,few large,Stimulus\all_stim\occlusion\partialviewing\fewlarge\control\fewlarge_partialViewing_control_banana8.png,mask_img/000000000690.png,experiment,r,r,440.5853472000017
V3,26,22,Female,Right,121,Block 1,0.6102552999946056,0.1,true,banana,banana,occlusion,high,mask,partial viewing,few large,Stimulus\all_stim\occlusion\partialviewing\fewlarge\high\fewlarge_partialViewing_high_banana9.png,mask_img/000000012999.png,experiment,r,r,441.8615723999974
V3,26,22,Female,Right,122,Block 1,0.5875864000117872,0.1,true,cat,cat,occlusion,control,mask,partial viewing,few large,Stimulus\all_stim\occlusion\partialviewing\fewlarge\control\fewlarge_partialViewing_control_cat2.png,mask_img/000000006489.png,experiment,i,i,443.4939999000053
V3,26,22,Female,Right,123,Block 1,0.7037398999964353,0.1,true,tree,tree,occlusion,control,mask,partial viewing,many small,Stimulus\all_stim\occlusion\partialviewing\manysmall\control\manysmall_partialViewing_control_tree10.png,mask_img/000000040948.png,experiment,q,q,444.8574490000028
V3,26,22,Female,Right,124,Block 1,0.6194728999980725,0.025,true,building,building,occlusion,high,mask,partial viewing,many small,Stimulus\all_stim\occlusion\partialviewing\manysmall\high\manysmall_partialViewing_high_building3.png,mask_img/000000045655.png,experiment,p,p,446.5136232000077
V3,26,22,Female,Right,125,Block 1,2.1513941000011982,0.05,false,person,bird,occlusion,high,mask,partial viewing,many small,Stimulus\all_stim\occlusion\partialviewing\manysmall\high\manysmall_partialViewing_high_person9.png,mask_img/000000052619.png,experiment,o,u,449.44162369999685
V3,26,22,Female,Right,126,Block 1,0.8307230999926105,0.1,true,building,building,occlusion,control,mask,partial viewing,many small,Stimulus\all_stim\occlusion\partialviewing\manysmall\control\manysmall_partialViewing_control_building7.png,mask_img/000000036029.png,experiment,p,p,451.25734809999994
V3,26,22,Female,Right,127,Block 1,1.1812888999993447,0.1,false,person,cat,occlusion,low,mask,partial viewing,many small,Stimulus\all_stim\occlusion\partialviewing\manysmall\low\manysmall_partialViewing_low_person10.png,mask_img/000000061838.png,experiment,i,u,453.21765890000097
V3,26,22,Female,Right,128,Block 1,0.8508272000035504,0.025,true,bird,bird,occlusion,control,mask,partial viewing,many small,Stimulus\all_stim\occlusion\partialviewing\manysmall\control\manysmall_partialViewing_control_bird9.png,mask_img/000000035514.png,experiment,o,o,454.7536199000024
V3,26,22,Female,Right,129,Block 1,0.6221766000089701,0.05,true,building,building,occlusion,low,mask,partial viewing,few large,Stimulus\all_stim\occlusion\partialviewing\fewlarge\low\fewlarge_partialViewing_low_building3.png,mask_img/000000024808.png,experiment,p,p,456.36130020000564
V3,26,22,Female,Right,130,Block 1,1.101285700002336,0.025,false,cat,bird,occlusion,low,mask,partial viewing,many small,Stimulus\all_stim\occlusion\partialviewing\manysmall\low\manysmall_partialViewing_low_cat7.png,mask_img/000000060158.png,experiment,o,i,458.307332700002
V3,26,22,Female,Right,131,Block 1,1.586866600002395,0.05,false,cat,banana,occlusion,low,mask,partial viewing,many small,Stimulus\all_stim\occlusion\partialviewing\manysmall\low\manysmall_partialViewing_low_cat5.png,mask_img/000000059660.png,experiment,r,i,460.8259255000012
V3,26,22,Female,Right,132,Block 1,1.1203968999907374,0.1,true,cat,cat,occlusion,high,mask,partial viewing,few large,Stimulus\all_stim\occlusion\partialviewing\fewlarge\high\fewlarge_partialViewing_high_cat1.png,mask_img/000000017183.png,experiment,i,i,462.60937900000135
V3,26,22,Female,Right,133,Block 1,1.1261213999969186,0.025,true,building,building,occlusion,low,mask,partial viewing,many small,Stimulus\all_stim\occlusion\partialviewing\manysmall\low\manysmall_partialViewing_low_building9.png,mask_img/000000058102.png,experiment,p,p,464.8347575999942
V3,26,22,Female,Right,134,Block 1,1.3250085000036051,0.05,true,bus,bus,occlusion,control,mask,partial viewing,few large,Stimulus\all_stim\occlusion\partialviewing\fewlarge\control\fewlarge_partialViewing_control_bus1.png,mask_img/000000005142.png,experiment,w,w,467.28964709999855
V3,26,22,Female,Right,135,Block 1,0.9036741000018083,0.05,true,building,building,occlusion,control,mask,partial viewing,many small,Stimulus\all_stim\occlusion\partialviewing\manysmall\control\manysmall_partialViewing_control_building1.png,mask_img/000000035818.png,experiment,p,p,469.0575007000007
V3,26,22,Female,Right,136,Block 1,1.0494421000039438,0.05,true,banana,banana,occlusion,high,mask,partial viewing,many small,Stimulus\all_stim\occlusion\partialviewing\manysmall\high\manysmall_partialViewing_high_banana3.png,mask_img/000000042476.png,experiment,r,r,471.1697176000016
V3,26,22,Female,Right,137,Block 1,1.2667578999971738,0.025,true,cat,cat,occlusion,high,mask,partial viewing,many small,Stimulus\all_stim\occlusion\partialviewing\manysmall\high\manysmall_partialViewing_high_cat1.png,mask_img/000000048664.png,experiment,i,i,473.4504869999946
V3,26,22,Female,Right,138,Block 1,1.2006847000011476,0.1,true,bus,bus,occlusion,high,mask,partial viewing,many small,Stimulus\all_stim\occlusion\partialviewing\manysmall\high\manysmall_partialViewing_high_bus8.png,mask_img/000000048169.png,experiment,w,w,475.3947819000023
V3,26,22,Female,Right,139,Block 1,0.9025923000008333,0.05,true,cat,cat,occlusion,low,mask,partial viewing,many small,Stimulus\all_stim\occlusion\partialviewing\manysmall\low\manysmall_partialViewing_low_cat8.png,mask_img/000000060245.png,experiment,i,i,477.0517855000071
V3,26,22,Female,Right,140,Block 1,1.06775970000308,0.025,false,tree,bird,occlusion,high,mask,partial viewing,many small,Stimulus\all_stim\occlusion\partialviewing\manysmall\high\manysmall_partialViewing_high_tree8.png,mask_img/000000054334.png,experiment,o,q,478.78696460000356
V3,26,22,Female,Right,141,Block 1,1.1113661999988835,0.05,true,firehydrant,firehydrant,occlusion,control,mask,partial viewing,many small,Stimulus\all_stim\occlusion\partialviewing\manysmall\control\manysmall_partialViewing_control_firehydrant2.png,mask_img/000000039089.png,experiment,e,e,480.65018019999843
V3,26,22,Female,Right,142,Block 1,1.1045884999912232,0.1,true,tree,tree,occlusion,high,mask,partial viewing,few large,Stimulus\all_stim\occlusion\partialviewing\fewlarge\high\fewlarge_partialViewing_high_tree1.png,mask_img/000000021206.png,experiment,q,q,482.578202100005
V3,26,22,Female,Right,143,Block 1,0.7426806000003126,0.05,true,building,building,occlusion,low,mask,partial viewing,many small,Stimulus\all_stim\occlusion\partialviewing\manysmall\low\manysmall_partialViewing_low_building7.png,mask_img/000000058021.png,experiment,p,p,484.24169199999596
V3,26,22,Female,Right,144,Block 1,0.7928857999941101,0.1,true,tree,tree,occlusion,high,mask,partial viewing,many small,Stimulus\all_stim\occlusion\partialviewing\manysmall\high\manysmall_partialViewing_high_tree5.png,mask_img/000000053410.png,experiment,q,q,500.673899100002
V3,26,22,Female,Right,145,Block 2,0.8666535999946063,0.1,true,building,building,occlusion,high,mask,partial viewing,many small,Stimulus\all_stim\occlusion\partialviewing\manysmall\high\manysmall_partialViewing_high_building4.png,mask_img/000000046025.png,experiment,p,p,502.38555419999466
V3,26,22,Female,Right,146,Block 2,1.5532690999971237,0.05,true,banana,banana,occlusion,low,mask,partial viewing,many small,Stimulus\all_stim\occlusion\partialviewing\manysmall\low\manysmall_partialViewing_low_banana3.png,mask_img/000000054875.png,experiment,r,r,504.88170979999995
V3,26,22,Female,Right,147,Block 2,2.069604399992386,0.025,false,person,building,occlusion,high,mask,partial viewing,many small,Stimulus\all_stim\occlusion\partialviewing\manysmall\high\manysmall_partialViewing_high_person2.png,mask_img/000000051461.png,experiment,p,u,507.7853821000026
V3,26,22,Female,Right,148,Block 2,0.9712959000025876,0.1,true,cat,cat,occlusion,high,mask,partial viewing,many small,Stimulus\all_stim\occlusion\partialviewing\manysmall\high\manysmall_partialViewing_high_cat1.png,mask_img/000000048664.png,experiment,i,i,509.689294900003
V3,26,22,Female,Right,149,Block 2,0.9796971999894595,0.025,true,bird,bird,occlusion,low,mask,partial viewing,few large,Stimulus\all_stim\occlusion\partialviewing\fewlarge\low\fewlarge_partialViewing_low_bird5.png,mask_img/000000024239.png,experiment,o,o,511.5296426999994
V3,26,22,Female,Right,150,Block 2,1.9898366999987047,0.05,false,firehydrant,building,occlusion,high,mask,partial viewing,many small,Stimulus\all_stim\occlusion\partialviewing\manysmall\high\manysmall_partialViewing_high_firehydrant6.png,mask_img/000000050782.png,experiment,p,e,514.2015078999975
V3,26,22,Female,Right,151,Block 2,0.9028782999957912,0.025,true,bird,bird,occlusion,control,mask,partial viewing,many small,Stimulus\all_stim\occlusion\partialviewing\manysmall\control\manysmall_partialViewing_control_bird4.png,mask_img/000000034691.png,experiment,o,o,515.9453065999987
V3,26,22,Female,Right,152,Block 2,0.9086043999996036,0.025,true,bird,bird,occlusion,control,mask,partial viewing,many small,Stimulus\all_stim\occlusion\partialviewing\manysmall\control\manysmall_partialViewing_control_bird7.png,mask_img/000000035132.png,experiment,o,o,517.5213796000025
V3,26,22,Female,Right,153,Block 2,0.6859332999883918,0.025,true,person,person,occlusion,control,mask,partial viewing,many small,Stimulus\all_stim\occlusion\partialviewing\manysmall\control\manysmall_partialViewing_control_person7.png,mask_img/000000040399.png,experiment,u,u,519.1774117000023
V3,26,22,Female,Right,154,Block 2,0.8812359000003198,0.1,true,banana,banana,occlusion,control,mask,partial viewing,many small,Stimulus\all_stim\occlusion\partialviewing\manysmall\control\manysmall_partialViewing_control_banana1.png,mask_img/000000033073.png,experiment,r,r,520.8579055000009
V3,26,22,Female,Right,155,Block 2,0.9138074000074994,0.05,true,bird,bird,occlusion,high,mask,partial viewing,many small,Stimulus\all_stim\occlusion\partialviewing\manysmall\high\manysmall_partialViewing_high_bird9.png,mask_img/000000044946.png,experiment,o,o,522.7453327999974
V3,26,22,Female,Right,156,Block 2,1.1656322000053478,0.05,false,bird,banana,occlusion,low,mask,partial viewing,many small,Stimulus\all_stim\occlusion\partialviewing\manysmall\low\manysmall_partialViewing_low_bird4.png,mask_img/000000055859.png,experiment,r,o,524.707215500006
V3,26,22,Female,Right,157,Block 2,0.8275465000042459,0.1,true,firehydrant,firehydrant,occlusion,low,mask,partial viewing,few large,Stimulus\all_stim\occlusion\partialviewing\fewlarge\low\fewlarge_partialViewing_low_firehydrant9.png,mask_img/000000029056.png,experiment,e,e,526.3773322000052
V3,26,22,Female,Right,158,Block 2,1.003920900009689,0.05,false,bus,bird,occlusion,low,mask,partial viewing,many small,Stimulus\all_stim\occlusion\partialviewing\manysmall\low\manysmall_partialViewing_low_bus2.png,mask_img/000000058627.png,experiment,o,w,528.2413551000063
V3,26,22,Female,Right,159,Block 2,0.7538288999930955,0.1,true,tree,tree,occlusion,low,mask,partial viewing,many small,Stimulus\all_stim\occlusion\partialviewing\manysmall\low\manysmall_partialViewing_low_tree2.png,mask_img/000000062875.png,experiment,q,q,529.9295564000058
V3,26,22,Female,Right,160,Block 2,2.1763571000046795,0.025,false,cat,firehydrant,occlusion,low,mask,partial viewing,many small,Stimulus\all_stim\occlusion\partialviewing\manysmall\low\manysmall_partialViewing_low_cat9.png,mask_img/000000060387.png,experiment,e,i,533.0417275000073
V3,26,22,Female,Right,161,Block 2,1.2334001999988686,0.1,false,building,bus,occlusion,high,mask,partial viewing,many small,Stimulus\all_stim\occlusion\partialviewing\manysmall\high\manysmall_partialViewing_high_building8.png,mask_img/000000046245.png,experiment,w,p,535.129344800007
V3,26,22,Female,Right,162,Block 2,1.2555977000010898,0.05,false,person,bird,occlusion,low,mask,partial viewing,many small,Stimulus\all_stim\occlusion\partialviewing\manysmall\low\manysmall_partialViewing_low_person9.png,mask_img/000000062427.png,experiment,o,u,537.1453872999991
V3,26,22,Female,Right,163,Block 2,0.8178791999962414,0.025,true,bus,bus,occlusion,control,mask,partial viewing,many small,Stimulus\all_stim\occlusion\partialviewing\manysmall\control\manysmall_partialViewing_control_bus2.png,mask_img/000000036622.png,experiment,w,w,538.7952150000056
V3,26,22,Female,Right,164,Block 2,0.7466638999903807,0.1,true,cat,cat,occlusion,low,mask,partial viewing,many small,Stimulus\all_stim\occlusion\partialviewing\manysmall\low\manysmall_partialViewing_low_cat3.png,mask_img/000000059442.png,experiment,i,i,540.2014994000056
V3,26,22,Female,Right,165,Block 2,1.1362852000020212,0.1,false,cat,bird,occlusion,high,mask,partial viewing,many small,Stimulus\all_stim\occlusion\partialviewing\manysmall\high\manysmall_partialViewing_high_cat7.png,mask_img/000000049602.png,experiment,o,i,542.3934001000016
V3,26,22,Female,Right,166,Block 2,0.9877993000118295,0.025,true,building,building,occlusion,high,mask,partial viewing,many small,Stimulus\all_stim\occlusion\partialviewing\manysmall\high\manysmall_partialViewing_high_building1.png,mask_img/000000044950.png,experiment,p,p,544.3375640000013
V3,26,22,Female,Right,167,Block 2,1.520938900008332,0.025,false,person,bus,occlusion,high,mask,partial viewing,many small,Stimulus\all_stim\occlusion\partialviewing\manysmall\high\manysmall_partialViewing_high_person10.png,mask_img/000000051453.png,experiment,w,u,546.7695482999989
V3,26,22,Female,Right,168,Block 2,0.8696759000013117,0.05,false,firehydrant,cat,occlusion,low,mask,partial viewing,many small,Stimulus\all_stim\occlusion\partialviewing\manysmall\low\manysmall_partialViewing_low_firehydrant1.png,mask_img/000000060464.png,experiment,i,e,548.6175564000005
V3,26,22,Female,Right,169,Block 2,1.4855132000084268,0.025,true,firehydrant,firehydrant,occlusion,low,mask,partial viewing,many small,Stimulus\all_stim\occlusion\partialviewing\manysmall\low\manysmall_partialViewing_low_firehydrant9.png,mask_img/000000061693.png,experiment,e,e,550.7613420999987
V3,26,22,Female,Right,170,Block 2,1.2131257000000915,0.025,true,firehydrant,firehydrant,occlusion,low,mask,partial viewing,many small,Stimulus\all_stim\occlusion\partialviewing\manysmall\low\manysmall_partialViewing_low_firehydrant10.png,mask_img/000000060529.png,experiment,e,e,553.0976247000071
V3,26,22,Female,Right,171,Block 2,1.8880228999914834,0.05,true,cat,cat,occlusion,high,mask,partial viewing,few large,Stimulus\all_stim\occlusion\partialviewing\fewlarge\high\fewlarge_partialViewing_high_cat10.png,mask_img/000000017308.png,experiment,i,i,555.729387600004
V3,26,22,Female,Right,172,Block 2,0.7977398000075482,0.05,true,person,person,occlusion,low,mask,partial viewing,few large,Stimulus\all_stim\occlusion\partialviewing\fewlarge\low\fewlarge_partialViewing_low_person10.png,mask_img/000000029128.png,experiment,u,u,557.5933102999988
V3,26,22,Female,Right,173,Block 2,0.836976999999024,0.025,true,cat,cat,occlusion,low,mask,partial viewing,many small,Stimulus\all_stim\occlusion\partialviewing\manysmall\low\manysmall_partialViewing_low_cat1.png,mask_img/000000059036.png,experiment,i,i,559.345538900001
V3,26,22,Female,Right,174,Block 2,0.7196904000011273,0.025,true,bird,bird,occlusion,control,mask,partial viewing,few large,Stimulus\all_stim\occlusion\partialviewing\fewlarge\control\fewlarge_partialViewing_control_bird7.png,mask_img/000000002774.png,experiment,o,o,560.8572141000041
V3,26,22,Female,Right,175,Block 2,0.6402041999972425,0.1,true,cat,cat,occlusion,high,mask,partial viewing,few large,Stimulus\all_stim\occlusion\partialviewing\fewlarge\high\fewlarge_partialViewing_high_cat2.png,mask_img/000000017352.png,experiment,i,i,562.2401163000031
V3,26,22,Female,Right,176,Block 2,0.6244488999946043,0.025,false,bird,cat,occlusion,low,mask,partial viewing,many small,Stimulus\all_stim\occlusion\partialviewing\manysmall\low\manysmall_partialViewing_low_bird9.png,mask_img/000000056641.png,experiment,i,o,563.9612691000075
V3,26,22,Female,Right,177,Block 2,0.7403320000012172,0.05,true,banana,banana,occlusion,control,mask,partial viewing,few large,Stimulus\all_stim\occlusion\partialviewing\fewlarge\control\fewlarge_partialViewing_control_banana6.png,mask_img/000000000595.png,experiment,r,r,565.5772762999986
V3,26,22,Female,Right,178,Block 2,0.7347220000083325,0.05,true,bird,bird,occlusion,high,mask,partial viewing,few large,Stimulus\all_stim\occlusion\partialviewing\fewlarge\high\fewlarge_partialViewing_high_bird10.png,mask_img/000000013127.png,experiment,o,o,566.9772689999954
V3,26,22,Female,Right,179,Block 2,0.7843668999994406,0.1,true,bus,bus,occlusion,high,mask,partial viewing,many small,Stimulus\all_stim\occlusion\partialviewing\manysmall\high\manysmall_partialViewing_high_bus10.png,mask_img/000000046805.png,experiment,w,w,568.7931650999963
V3,26,22,Female,Right,180,Block 2,1.1022780000057537,0.025,true,banana,banana,occlusion,high,mask,partial viewing,many small,Stimulus\all_stim\occlusion\partialviewing\manysmall\high\manysmall_partialViewing_high_banana9.png,mask_img/000000043579.png,experiment,r,r,571.0013246000017
V3,26,22,Female,Right,181,Block 2,0.7089456999965478,0.1,true,person,person,occlusion,low,mask,partial viewing,few large,Stimulus\all_stim\occlusion\partialviewing\fewlarge\low\fewlarge_partialViewing_low_person8.png,mask_img/000000030611.png,experiment,u,u,572.657415099995
V3,26,22,Female,Right,182,Block 2,0.8419547999947099,0.1,true,bus,bus,occlusion,low,mask,partial viewing,many small,Stimulus\all_stim\occlusion\partialviewing\manysmall\low\manysmall_partialViewing_low_bus9.png,mask_img/000000058910.png,experiment,w,w,574.3535033999942
V3,26,22,Female,Right,183,Block 2,0.7525459999887971,0.025,true,banana,banana,occlusion,high,mask,partial viewing,few large,Stimulus\all_stim\occlusion\partialviewing\fewlarge\high\fewlarge_partialViewing_high_banana2.png,mask_img/000000012179.png,experiment,r,r,575.8173544000019
V3,26,22,Female,Right,184,Block 2,0.6280256000027293,0.1,true,bus,bus,occlusion,control,mask,partial viewing,few large,Stimulus\all_stim\occlusion\partialviewing\fewlarge\control\fewlarge_partialViewing_control_bus6.png,mask_img/000000005862.png,experiment,w,w,577.2763527000061
V3,26,22,Female,Right,185,Block 2,0.6087549999938346,0.1,false,building,bird,occlusion,control,mask,partial viewing,many small,Stimulus\all_stim\occlusion\partialviewing\manysmall\control\manysmall_partialViewing_control_building9.png,mask_img/000000036226.png,experiment,o,p,578.8267458000046
V3,26,22,Female,Right,186,Block 2,0.8621907000051579,0.05,true,banana,banana,occlusion,low,mask,partial viewing,many small,Stimulus\all_stim\occlusion\partialviewing\manysmall\low\manysmall_partialViewing_low_banana5.png,mask_img/000000055388.png,experiment,r,r,580.6095547000004
V3,26,22,Female,Right,187,Block 2,0.8306583000085084,0.05,true,person,person,occlusion,control,mask,partial viewing,few large,Stimulus\all_stim\occlusion\partialviewing\fewlarge\control\fewlarge_partialViewing_control_person5.png,mask_img/000000009286.png,experiment,u,u,582.5453191999986
V3,26,22,Female,Right,188,Block 2,0.8899681000038981,0.05,true,banana,banana,occlusion,high,mask,partial viewing,few large,Stimulus\all_stim\occlusion\partialviewing\fewlarge\high\fewlarge_partialViewing_high_banana7.png,mask_img/000000012567.png,experiment,r,r,584.3856215999986
V3,26,22,Female,Right,189,Block 2,0.8597172000008868,0.025,true,banana,banana,occlusion,low,mask,partial viewing,many small,Stimulus\all_stim\occlusion\partialviewing\manysmall\low\manysmall_partialViewing_low_banana5.png,mask_img/000000055388.png,experiment,r,r,585.8974076000013
V3,26,22,Female,Right,190,Block 2,0.484241900005145,0.1,true,banana,banana,occlusion,control,mask,partial viewing,many small,Stimulus\all_stim\occlusion\partialviewing\manysmall\control\manysmall_partialViewing_control_banana8.png,mask_img/000000033904.png,experiment,r,r,587.4980041999952
V3,26,22,Female,Right,191,Block 2,0.5922797999955947,0.05,true,building,building,occlusion,control,mask,partial viewing,many small,Stimulus\all_stim\occlusion\partialviewing\manysmall\control\manysmall_partialViewing_control_building5.png,mask_img/000000036004.png,experiment,p,p,588.8494340000034
V3,26,22,Female,Right,192,Block 2,0.8602555000106804,0.1,true,bus,bus,occlusion,low,mask,partial viewing,many small,Stimulus\all_stim\occlusion\partialviewing\manysmall\low\manysmall_partialViewing_low_bus2.png,mask_img/000000058627.png,experiment,w,w,590.4172674000001
V3,26,22,Female,Right,193,Block 2,0.8962813999969512,0.1,true,bird,bird,occlusion,low,mask,partial viewing,few large,Stimulus\all_stim\occlusion\partialviewing\fewlarge\low\fewlarge_partialViewing_low_bird4.png,mask_img/000000024193.png,experiment,o,o,592.361226699999
V3,26,22,Female,Right,194,Block 2,0.7235192000080133,0.025,true,banana,banana,occlusion,high,mask,partial viewing,few large,Stimulus\all_stim\occlusion\partialviewing\fewlarge\high\fewlarge_partialViewing_high_banana5.png,mask_img/000000012543.png,experiment,r,r,594.0170922999969
V3,26,22,Female,Right,195,Block 2,0.9482775999931619,0.05,true,bus,bus,occlusion,control,mask,partial viewing,few large,Stimulus\all_stim\occlusion\partialviewing\fewlarge\control\fewlarge_partialViewing_control_bus8.png,mask_img/000000006153.png,experiment,w,w,596.0256502999982
V3,26,22,Female,Right,196,Block 2,0.6278908000094816,0.025,true,building,building,occlusion,control,mask,partial viewing,few large,Stimulus\all_stim\occlusion\partialviewing\fewlarge\control\fewlarge_partialViewing_control_building9.png,mask_img/000000005131.png,experiment,p,p,597.7053945999942
V3,26,22,Female,Right,197,Block 2,1.1369045000028564,0.025,true,bus,bus,occlusion,control,mask,partial viewing,many small,Stimulus\all_stim\occlusion\partialviewing\manysmall\control\manysmall_partialViewing_control_bus6.png,mask_img/000000037174.png,experiment,w,w,599.745267499995
V3,26,22,Female,Right,198,Block 2,0.7428585999878123,0.025,true,bird,bird,occlusion,high,mask,partial viewing,few large,Stimulus\all_stim\occlusion\partialviewing\fewlarge\high\fewlarge_partialViewing_high_bird6.png,mask_img/000000013944.png,experiment,o,o,601.5614830999984
V3,26,22,Female,Right,199,Block 2,1.1505833999981405,0.05,true,person,person,occlusion,low,mask,partial viewing,many small,Stimulus\all_stim\occlusion\partialviewing\manysmall\low\manysmall_partialViewing_low_person1.png,mask_img/000000061780.png,experiment,u,u,603.6018209000031
V3,26,22,Female,Right,200,Block 2,0.684656699988409,0.1,true,cat,cat,occlusion,control,mask,partial viewing,few large,Stimulus\all_stim\occlusion\partialviewing\fewlarge\control\fewlarge_partialViewing_control_cat4.png,mask_img/000000006842.png,experiment,i,i,604.969293999995
V3,26,22,Female,Right,201,Block 2,0.7837741999974241,0.05,true,banana,banana,occlusion,control,mask,partial viewing,few large,Stimulus\all_stim\occlusion\partialviewing\fewlarge\control\fewlarge_partialViewing_control_banana1.png,mask_img/000000000042.png,experiment,r,r,606.6254432999995
V3,26,22,Female,Right,202,Block 2,0.9888344000064535,0.05,true,bus,bus,occlusion,control,mask,partial viewing,many small,Stimulus\all_stim\occlusion\partialviewing\manysmall\control\manysmall_partialViewing_control_bus10.png,mask_img/000000036482.png,experiment,w,w,608.3136324000079
V3,26,22,Female,Right,203,Block 2,1.5660084999981336,0.1,true,cat,cat,occlusion,control,mask,partial viewing,few large,Stimulus\all_stim\occlusion\partialviewing\fewlarge\control\fewlarge_partialViewing_control_cat9.png,mask_img/000000007558.png,experiment,i,i,610.7693108999956
V3,26,22,Female,Right,204,Block 2,0.8437969999940833,0.025,true,bus,bus,occlusion,high,mask,partial viewing,many small,Stimulus\all_stim\occlusion\partialviewing\manysmall\high\manysmall_partialViewing_high_bus1.png,mask_img/000000046676.png,experiment,w,w,612.353349099998
V3,26,22,Female,Right,205,Block 2,0.8029225999925984,0.025,true,building,building,occlusion,low,mask,partial viewing,many small,Stimulus\all_stim\occlusion\partialviewing\manysmall\low\manysmall_partialViewing_low_building6.png,mask_img/000000057979.png,experiment,p,p,614.1772420000052
V3,26,22,Female,Right,206,Block 2,0.9898410000023432,0.1,true,bird,bird,occlusion,low,mask,partial viewing,many small,Stimulus\all_stim\occlusion\partialviewing\manysmall\low\manysmall_partialViewing_low_bird2.png,mask_img/000000055737.png,experiment,o,o,616.2572730999964
V3,26,22,Female,Right,207,Block 2,0.8187452000129269,0.025,true,tree,tree,occlusion,control,mask,partial viewing,many small,Stimulus\all_stim\occlusion\partialviewing\manysmall\control\manysmall_partialViewing_control_tree6.png,mask_img/000000041272.png,experiment,q,q,618.1692979000072
V3,26,22,Female,Right,208,Block 2,0.6287082999915583,0.05,true,building,building,occlusion,control,mask,partial viewing,many small,Stimulus\all_stim\occlusion\partialviewing\manysmall\control\manysmall_partialViewing_control_building7.png,mask_img/000000036029.png,experiment,p,p,619.9292042000015
V3,26,22,Female,Right,209,Block 2,0.6896844999864697,0.1,true,building,building,occlusion,control,mask,partial viewing,many small,Stimulus\all_stim\occlusion\partialviewing\manysmall\control\manysmall_partialViewing_control_building1.png,mask_img/000000035818.png,experiment,p,p,621.7692056999949
V3,26,22,Female,Right,210,Block 2,0.8237257000000682,0.05,false,cat,banana,occlusion,high,mask,partial viewing,few large,Stimulus\all_stim\occlusion\partialviewing\fewlarge\high\fewlarge_partialViewing_high_cat8.png,mask_img/000000017791.png,experiment,r,i,623.7294983000029
V3,26,22,Female,Right,211,Block 2,1.1933961999893654,0.1,true,tree,tree,occlusion,high,mask,partial viewing,few large,Stimulus\all_stim\occlusion\partialviewing\fewlarge\high\fewlarge_partialViewing_high_tree6.png,mask_img/000000022142.png,experiment,q,q,625.8172428999969
V3,26,22,Female,Right,212,Block 2,0.7106483999959892,0.025,true,building,building,occlusion,high,mask,partial viewing,few large,Stimulus\all_stim\occlusion\partialviewing\fewlarge\high\fewlarge_partialViewing_high_building3.png,mask_img/000000014567.png,experiment,p,p,627.6015712999942
V3,26,22,Female,Right,213,Block 2,1.2651802000036696,0.05,true,person,person,occlusion,high,mask,partial viewing,few large,Stimulus\all_stim\occlusion\partialviewing\fewlarge\high\fewlarge_partialViewing_high_person6.png,mask_img/000000020392.png,experiment,u,u,629.9051850999967
V3,26,22,Female,Right,214,Block 2,0.8711228000029223,0.025,true,bus,bus,occlusion,control,mask,partial viewing,few large,Stimulus\all_stim\occlusion\partialviewing\fewlarge\control\fewlarge_partialViewing_control_bus7.png,mask_img/000000006146.png,experiment,w,w,631.4252207999962
V3,26,22,Female,Right,215,Block 2,2.0027311999874655,0.025,false,firehydrant,building,occlusion,high,mask,partial viewing,many small,Stimulus\all_stim\occlusion\partialviewing\manysmall\high\manysmall_partialViewing_high_firehydrant9.png,mask_img/000000051164.png,experiment,p,e,634.4254899999942
V3,26,22,Female,Right,216,Block 2,0.8829039000120247,0.1,true,tree,tree,occlusion,control,mask,partial viewing,few large,Stimulus\all_stim\occlusion\partialviewing\fewlarge\control\fewlarge_partialViewing_control_tree5.png,mask_img/000000010991.png,experiment,q,q,636.0816523999965
V3,26,22,Female,Right,217,Block 2,0.606561500011594,0.05,true,tree,tree,occlusion,low,mask,partial viewing,many small,Stimulus\all_stim\occlusion\partialviewing\manysmall\low\manysmall_partialViewing_low_tree8.png,mask_img/000000063804.png,experiment,q,q,637.593176800001
V3,26,22,Female,Right,218,Block 2,0.7055030000046827,0.025,true,person,person,occlusion,high,mask,partial viewing,few large,Stimulus\all_stim\occlusion\partialviewing\fewlarge\high\fewlarge_partialViewing_high_person8.png,mask_img/000000020570.png,experiment,u,u,639.1053339000064
V3,26,22,Female,Right,219,Block 2,2.3563117000012426,0.1,true,bus,bus,occlusion,high,mask,partial viewing,few large,Stimulus\all_stim\occlusion\partialviewing\fewlarge\high\fewlarge_partialViewing_high_bus5.png,mask_img/000000015986.png,experiment,w,w,642.1135116000078
V3,26,22,Female,Right,220,Block 2,0.7112988000008045,0.025,true,firehydrant,firehydrant,occlusion,control,mask,partial viewing,few large,Stimulus\all_stim\occlusion\partialviewing\fewlarge\control\fewlarge_partialViewing_control_firehydrant9.png,mask_img/000000008329.png,experiment,e,e,643.6011963000055
V3,26,22,Female,Right,221,Block 2,0.5042809000005946,0.05,true,bus,bus,occlusion,low,mask,partial viewing,few large,Stimulus\all_stim\occlusion\partialviewing\fewlarge\low\fewlarge_partialViewing_low_bus7.png,mask_img/000000026720.png,experiment,w,w,644.9524590999936
V3,26,22,Female,Right,222,Block 2,0.6432117999938782,0.1,true,person,person,occlusion,low,mask,partial viewing,few large,Stimulus\all_stim\occlusion\partialviewing\fewlarge\low\fewlarge_partialViewing_low_person2.png,mask_img/000000029274.png,experiment,u,u,646.5030033000075
V3,26,22,Female,Right,223,Block 2,0.7508953000069596,0.05,true,cat,cat,occlusion,high,mask,partial viewing,few large,Stimulus\all_stim\occlusion\partialviewing\fewlarge\high\fewlarge_partialViewing_high_cat9.png,mask_img/000000017858.png,experiment,i,i,648.1293922000041
V3,26,22,Female,Right,224,Block 2,1.8828579999972135,0.025,false,bird,banana,occlusion,high,mask,partial viewing,few large,Stimulus\all_stim\occlusion\partialviewing\fewlarge\high\fewlarge_partialViewing_high_bird10.png,mask_img/000000013127.png,experiment,r,o,651.1055438000039
V3,26,22,Female,Right,225,Block 2,0.8628732999932254,0.025,true,tree,tree,occlusion,low,mask,partial viewing,few large,Stimulus\all_stim\occlusion\partialviewing\fewlarge\low\fewlarge_partialViewing_low_tree10.png,mask_img/000000031454.png,experiment,q,q,652.8096787999966
V3,26,22,Female,Right,226,Block 2,0.6420261000021128,0.025,true,tree,tree,occlusion,low,mask,partial viewing,many small,Stimulus\all_stim\occlusion\partialviewing\manysmall\low\manysmall_partialViewing_low_tree9.png,mask_img/000000063867.png,experiment,q,q,654.5051808999997
V3,26,22,Female,Right,227,Block 2,0.5787866000027861,0.05,true,building,building,occlusion,control,mask,partial viewing,few large,Stimulus\all_stim\occlusion\partialviewing\fewlarge\control\fewlarge_partialViewing_control_building9.png,mask_img/000000005131.png,experiment,p,p,655.8903777999949
V3,26,22,Female,Right,228,Block 2,1.5650015999999596,0.025,true,cat,cat,occlusion,low,mask,partial viewing,many small,Stimulus\all_stim\occlusion\partialviewing\manysmall\low\manysmall_partialViewing_low_cat5.png,mask_img/000000059660.png,experiment,i,i,658.537207500005
V3,26,22,Female,Right,229,Block 2,0.8510823999968125,0.1,true,building,building,occlusion,low,mask,partial viewing,many small,Stimulus\all_stim\occlusion\partialviewing\manysmall\low\manysmall_partialViewing_low_building8.png,mask_img/000000058073.png,experiment,p,p,660.1221648000064
V3,26,22,Female,Right,230,Block 2,0.6912354999949457,0.05,true,person,person,occlusion,low,mask,partial viewing,few large,Stimulus\all_stim\occlusion\partialviewing\fewlarge\low\fewlarge_partialViewing_low_person6.png,mask_img/000000030267.png,experiment,u,u,661.9452039000025
V3,26,22,Female,Right,231,Block 2,0.6432968000008259,0.05,true,cat,cat,occlusion,high,mask,partial viewing,few large,Stimulus\all_stim\occlusion\partialviewing\fewlarge\high\fewlarge_partialViewing_high_cat1.png,mask_img/000000017183.png,experiment,i,i,663.5372311999963
V3,26,22,Female,Right,232,Block 2,0.825550800000201,0.1,false,person,cat,occlusion,high,mask,partial viewing,many small,Stimulus\all_stim\occlusion\partialviewing\manysmall\high\manysmall_partialViewing_high_person7.png,mask_img/000000052562.png,experiment,i,u,665.0736388000078
V3,26,22,Female,Right,233,Block 2,0.7563363999943249,0.025,true,firehydrant,firehydrant,occlusion,control,mask,partial viewing,many small,Stimulus\all_stim\occlusion\partialviewing\manysmall\control\manysmall_partialViewing_control_firehydrant4.png,mask_img/000000039141.png,experiment,e,e,666.5531736999983
V3,26,22,Female,Right,234,Block 2,0.696486000000732,0.05,true,tree,tree,occlusion,low,mask,partial viewing,few large,Stimulus\all_stim\occlusion\partialviewing\fewlarge\low\fewlarge_partialViewing_low_tree7.png,mask_img/000000032906.png,experiment,q,q,668.2012551999942
V3,26,22,Female,Right,235,Block 2,0.8093595999962417,0.1,true,person,person,occlusion,low,mask,partial viewing,many small,Stimulus\all_stim\occlusion\partialviewing\manysmall\low\manysmall_partialViewing_low_person9.png,mask_img/000000062427.png,experiment,u,u,670.1132957999944
V3,26,22,Female,Right,236,Block 2,0.6684285999945132,0.05,true,firehydrant,firehydrant,occlusion,control,mask,partial viewing,few large,Stimulus\all_stim\occlusion\partialviewing\fewlarge\control\fewlarge_partialViewing_control_firehydrant5.png,mask_img/000000008006.png,experiment,e,e,671.449395699994
V3,26,22,Female,Right,237,Block 2,1.449569700009306,0.05,true,bus,bus,occlusion,control,mask,partial viewing,few large,Stimulus\all_stim\occlusion\partialviewing\fewlarge\control\fewlarge_partialViewing_control_bus5.png,mask_img/000000005615.png,experiment,w,w,673.6332029000041
V3,26,22,Female,Right,238,Block 2,0.9339146999991499,0.1,true,cat,cat,occlusion,low,mask,partial viewing,many small,Stimulus\all_stim\occlusion\partialviewing\manysmall\low\manysmall_partialViewing_low_cat5.png,mask_img/000000059660.png,experiment,i,i,675.6812283000036
V3,26,22,Female,Right,239,Block 2,1.1085731000057422,0.05,false,firehydrant,bus,occlusion,control,mask,partial viewing,few large,Stimulus\all_stim\occlusion\partialviewing\fewlarge\control\fewlarge_partialViewing_control_firehydrant10.png,mask_img/000000007758.png,experiment,w,e,677.7931858999946
V3,26,22,Female,Right,240,Block 2,0.8529380999971181,0.025,true,building,building,occlusion,high,mask,partial viewing,few large,Stimulus\all_stim\occlusion\partialviewing\fewlarge\high\fewlarge_partialViewing_high_building10.png,mask_img/000000014428.png,experiment,p,p,679.5693328000052
V3,26,22,Female,Right,241,Block 2,0.9620276000059675,0.05,true,building,building,occlusion,low,mask,partial viewing,few large,Stimulus\all_stim\occlusion\partialviewing\fewlarge\low\fewlarge_partialViewing_low_building2.png,mask_img/000000024702.png,experiment,p,p,681.5214536999993
V3,26,22,Female,Right,242,Block 2,0.7356129999971017,0.1,true,bird,bird,occlusion,control,mask,partial viewing,many small,Stimulus\all_stim\occlusion\partialviewing\manysmall\control\manysmall_partialViewing_control_bird10.png,mask_img/000000034304.png,experiment,o,o,682.9376615999936
V3,26,22,Female,Right,243,Block 2,1.1476538999995682,0.1,true,bus,bus,occlusion,control,mask,partial viewing,many small,Stimulus\all_stim\occlusion\partialviewing\manysmall\control\manysmall_partialViewing_control_bus1.png,mask_img/000000036255.png,experiment,w,w,684.8814383999998
V3,26,22,Female,Right,244,Block 2,1.6748717000009492,0.05,false,cat,bird,occlusion,low,mask,partial viewing,few large,Stimulus\all_stim\occlusion\partialviewing\fewlarge\low\fewlarge_partialViewing_low_cat4.png,mask_img/000000027675.png,experiment,o,i,687.6255505000008
V3,26,22,Female,Right,245,Block 2,1.4036226000025636,0.025,false,building,bus,occlusion,high,mask,partial viewing,many small,Stimulus\all_stim\occlusion\partialviewing\manysmall\high\manysmall_partialViewing_high_building5.png,mask_img/000000046029.png,experiment,w,p,690.0731779000052
V3,26,22,Female,Right,246,Block 2,0.7801069999986794,0.025,true,bus,bus,occlusion,control,mask,partial viewing,many small,Stimulus\all_stim\occlusion\partialviewing\manysmall\control\manysmall_partialViewing_control_bus3.png,mask_img/000000036765.png,experiment,w,w,691.665434399998
V3,26,22,Female,Right,247,Block 2,0.7748923000035575,0.1,true,building,building,occlusion,low,mask,partial viewing,many small,Stimulus\all_stim\occlusion\partialviewing\manysmall\low\manysmall_partialViewing_low_building2.png,mask_img/000000057551.png,experiment,p,p,693.2893449999974
V3,26,22,Female,Right,248,Block 2,0.6455446000036318,0.025,true,bus,bus,occlusion,low,mask,partial viewing,many small,Stimulus\all_stim\occlusion\partialviewing\manysmall\low\manysmall_partialViewing_low_bus2.png,mask_img/000000058627.png,experiment,w,w,695.0650813999964
V3,26,22,Female,Right,249,Block 2,0.7610360000107903,0.025,true,bird,bird,occlusion,control,mask,partial viewing,few large,Stimulus\all_stim\occlusion\partialviewing\fewlarge\control\fewlarge_partialViewing_control_bird8.png,mask_img/000000002822.png,experiment,o,o,696.6334989000025
V3,26,22,Female,Right,250,Block 2,0.6255508000031114,0.025,true,building,building,occlusion,high,mask,partial viewing,few large,Stimulus\all_stim\occlusion\partialviewing\fewlarge\high\fewlarge_partialViewing_high_building8.png,mask_img/000000015366.png,experiment,p,p,698.2491488999949
V3,26,22,Female,Right,251,Block 2,1.0879137000010815,0.05,true,bus,bus,occlusion,control,mask,partial viewing,many small,Stimulus\all_stim\occlusion\partialviewing\manysmall\control\manysmall_partialViewing_control_bus2.png,mask_img/000000036622.png,experiment,w,w,699.9933393999963
V3,26,22,Female,Right,252,Block 2,0.6196021000068868,0.025,true,building,building,occlusion,control,mask,partial viewing,many small,Stimulus\all_stim\occlusion\partialviewing\manysmall\control\manysmall_partialViewing_control_building3.png,mask_img/000000035979.png,experiment,p,p,701.7454012999951
V3,26,22,Female,Right,253,Block 2,0.7360772000101861,0.05,true,person,person,occlusion,low,mask,partial viewing,few large,Stimulus\all_stim\occlusion\partialviewing\fewlarge\low\fewlarge_partialViewing_low_person8.png,mask_img/000000030611.png,experiment,u,u,703.625440600008
V3,26,22,Female,Right,254,Block 2,0.8618918999854941,0.05,true,banana,banana,occlusion,low,mask,partial viewing,few large,Stimulus\all_stim\occlusion\partialviewing\fewlarge\low\fewlarge_partialViewing_low_banana1.png,mask_img/000000022545.png,experiment,r,r,705.353509499997
V3,26,22,Female,Right,255,Block 2,0.5024085000040941,0.025,true,banana,banana,occlusion,control,mask,partial viewing,few large,Stimulus\all_stim\occlusion\partialviewing\fewlarge\control\fewlarge_partialViewing_control_banana4.png,mask_img/000000000438.png,experiment,r,r,706.6903247000009
V3,26,22,Female,Right,256,Block 2,1.0807682999875396,0.025,false,tree,bus,occlusion,control,mask,partial viewing,few large,Stimulus\all_stim\occlusion\partialviewing\fewlarge\control\fewlarge_partialViewing_control_tree2.png,mask_img/000000010560.png,experiment,w,q,708.6011700999952
V3,26,22,Female,Right,257,Block 2,1.034665999992285,0.025,true,person,person,occlusion,low,mask,partial viewing,many small,Stimulus\all_stim\occlusion\partialviewing\manysmall\low\manysmall_partialViewing_low_person5.png,mask_img/000000062193.png,experiment,u,u,710.7371955999988
V3,26,22,Female,Right,258,Block 2,0.8203818000038154,0.1,true,tree,tree,occlusion,high,mask,partial viewing,few large,Stimulus\all_stim\occlusion\partialviewing\fewlarge\high\fewlarge_partialViewing_high_tree3.png,mask_img/000000021942.png,experiment,q,q,712.5710857999948
V3,26,22,Female,Right,259,Block 2,0.5757885000057286,0.05,true,building,building,occlusion,control,mask,partial viewing,few large,Stimulus\all_stim\occlusion\partialviewing\fewlarge\control\fewlarge_partialViewing_control_building5.png,mask_img/000000004642.png,experiment,p,p,713.9599393999961
V3,26,22,Female,Right,260,Block 2,0.6164664999960223,0.05,true,building,building,occlusion,low,mask,partial viewing,many small,Stimulus\all_stim\occlusion\partialviewing\manysmall\low\manysmall_partialViewing_low_building2.png,mask_img/000000057551.png,experiment,p,p,715.3773419000063
V3,26,22,Female,Right,261,Block 2,0.6574012000055518,0.05,true,person,person,occlusion,control,mask,partial viewing,few large,Stimulus\all_stim\occlusion\partialviewing\fewlarge\control\fewlarge_partialViewing_control_person9.png,mask_img/000000009809.png,experiment,u,u,716.7869359000033
V3,26,22,Female,Right,262,Block 2,1.2920018000004347,0.025,true,cat,cat,occlusion,high,mask,partial viewing,few large,Stimulus\all_stim\occlusion\partialviewing\fewlarge\high\fewlarge_partialViewing_high_cat1.png,mask_img/000000017183.png,experiment,i,i,718.7531438000005
V3,26,22,Female,Right,263,Block 2,0.7286155000037979,0.1,true,building,building,occlusion,low,mask,partial viewing,few large,Stimulus\all_stim\occlusion\partialviewing\fewlarge\low\fewlarge_partialViewing_low_building5.png,mask_img/000000025034.png,experiment,p,p,720.3294485999941
V3,26,22,Female,Right,264,Block 2,0.7013517000013962,0.05,true,tree,tree,occlusion,control,mask,partial viewing,few large,Stimulus\all_stim\occlusion\partialviewing\fewlarge\control\fewlarge_partialViewing_control_tree2.png,mask_img/000000010560.png,experiment,q,q,721.7931534999952
V3,26,22,Female,Right,265,Block 2,0.8279785000049742,0.1,true,bus,bus,occlusion,high,mask,partial viewing,few large,Stimulus\all_stim\occlusion\partialviewing\fewlarge\high\fewlarge_partialViewing_high_bus4.png,mask_img/000000015927.png,experiment,w,w,723.3131861000002
V3,26,22,Female,Right,266,Block 2,0.6214621999970404,0.025,true,firehydrant,firehydrant,occlusion,low,mask,partial viewing,few large,Stimulus\all_stim\occlusion\partialviewing\fewlarge\low\fewlarge_partialViewing_low_firehydrant7.png,mask_img/000000028885.png,experiment,e,e,724.7774924999976
V3,26,22,Female,Right,267,Block 2,0.6026219999912428,0.1,true,firehydrant,firehydrant,occlusion,control,mask,partial viewing,few large,Stimulus\all_stim\occlusion\partialviewing\fewlarge\control\fewlarge_partialViewing_control_firehydrant8.png,mask_img/000000008193.png,experiment,e,e,726.1142764999968
V3,26,22,Female,Right,268,Block 2,0.8324020000000019,0.05,true,banana,banana,occlusion,low,mask,partial viewing,many small,Stimulus\all_stim\occlusion\partialviewing\manysmall\low\manysmall_partialViewing_low_banana10.png,mask_img/000000054723.png,experiment,r,r,727.6333854999975
V3,26,22,Female,Right,269,Block 2,0.6735017000028165,0.025,true,tree,tree,occlusion,high,mask,partial viewing,many small,Stimulus\all_stim\occlusion\partialviewing\manysmall\high\manysmall_partialViewing_high_tree4.png,mask_img/000000053143.png,experiment,q,q,729.3933383999974
V3,26,22,Female,Right,270,Block 2,1.432109000001219,0.05,false,person,tree,occlusion,high,mask,partial viewing,many small,Stimulus\all_stim\occlusion\partialviewing\manysmall\high\manysmall_partialViewing_high_person10.png,mask_img/000000051453.png,experiment,q,u,731.6332800999953
V3,26,22,Female,Right,271,Block 2,1.090383999995538,0.025,true,firehydrant,firehydrant,occlusion,low,mask,partial viewing,few large,Stimulus\all_stim\occlusion\partialviewing\fewlarge\low\fewlarge_partialViewing_low_firehydrant10.png,mask_img/000000028367.png,experiment,e,e,733.8273023000074
V3,26,22,Female,Right,272,Block 2,1.3651548999914667,0.025,true,banana,banana,occlusion,high,mask,partial viewing,many small,Stimulus\all_stim\occlusion\partialviewing\manysmall\high\manysmall_partialViewing_high_banana4.png,mask_img/000000042499.png,experiment,r,r,736.2412136000057
V3,26,22,Female,Right,273,Block 2,1.253546499996446,0.1,true,cat,cat,occlusion,low,mask,partial viewing,many small,Stimulus\all_stim\occlusion\partialviewing\manysmall\low\manysmall_partialViewing_low_cat8.png,mask_img/000000060245.png,experiment,i,i,738.537149900003
V3,26,22,Female,Right,274,Block 2,1.3634801000007428,0.025,true,bus,bus,occlusion,high,mask,partial viewing,many small,Stimulus\all_stim\occlusion\partialviewing\manysmall\high\manysmall_partialViewing_high_bus2.png,mask_img/000000046852.png,experiment,w,w,740.8015356999967
V3,26,22,Female,Right,275,Block 2,0.8232725000125356,0.05,true,tree,tree,occlusion,high,mask,partial viewing,few large,Stimulus\all_stim\occlusion\partialviewing\fewlarge\high\fewlarge_partialViewing_high_tree3.png,mask_img/000000021942.png,experiment,q,q,742.3372428000002
V3,26,22,Female,Right,276,Block 2,1.9273136000119848,0.025,true,cat,cat,occlusion,high,mask,partial viewing,many small,Stimulus\all_stim\occlusion\partialviewing\manysmall\high\manysmall_partialViewing_high_cat8.png,mask_img/000000049763.png,experiment,i,i,745.2734949000005
V3,26,22,Female,Right,277,Block 2,0.9237805000011576,0.05,true,tree,tree,occlusion,high,mask,partial viewing,few large,Stimulus\all_stim\occlusion\partialviewing\fewlarge\high\fewlarge_partialViewing_high_tree10.png,mask_img/000000021419.png,experiment,q,q,747.1451944
V3,26,22,Female,Right,278,Block 2,1.1416432999976678,0.1,true,firehydrant,firehydrant,occlusion,high,mask,partial viewing,few large,Stimulus\all_stim\occlusion\partialviewing\fewlarge\high\fewlarge_partialViewing_high_firehydrant8.png,mask_img/000000019528.png,experiment,e,e,748.9934032000019
V3,26,22,Female,Right,279,Block 2,0.7663558999920497,0.1,true,building,building,occlusion,high,mask,partial viewing,few large,Stimulus\all_stim\occlusion\partialviewing\fewlarge\high\fewlarge_partialViewing_high_building10.png,mask_img/000000014428.png,experiment,p,p,750.4572227000026
V3,26,22,Female,Right,280,Block 2,1.3805718000076013,0.025,true,firehydrant,firehydrant,occlusion,low,mask,partial viewing,few large,Stimulus\all_stim\occlusion\partialviewing\fewlarge\low\fewlarge_partialViewing_low_firehydrant4.png,mask_img/000000028671.png,experiment,e,e,752.8094998000015
V3,26,22,Female,Right,281,Block 2,0.5420702999981586,0.05,true,firehydrant,firehydrant,occlusion,control,mask,partial viewing,many small,Stimulus\all_stim\occlusion\partialviewing\manysmall\control\manysmall_partialViewing_control_firehydrant5.png,mask_img/000000039211.png,experiment,e,e,754.2755686000019
V3,26,22,Female,Right,282,Block 2,0.4496815000020433,0.025,true,firehydrant,firehydrant,occlusion,low,mask,partial viewing,few large,Stimulus\all_stim\occlusion\partialviewing\fewlarge\low\fewlarge_partialViewing_low_firehydrant3.png,mask_img/000000028518.png,experiment,e,e,755.4602640999947
V3,26,22,Female,Right,283,Block 2,0.6937547999987146,0.025,true,tree,tree,occlusion,control,mask,partial viewing,many small,Stimulus\all_stim\occlusion\partialviewing\manysmall\control\manysmall_partialViewing_control_tree9.png,mask_img/000000041840.png,experiment,q,q,757.0736580999946
V3,26,22,Female,Right,284,Block 2,0.5092730999895139,0.1,true,building,building,occlusion,control,mask,partial viewing,few large,Stimulus\all_stim\occlusion\partialviewing\fewlarge\control\fewlarge_partialViewing_control_building1.png,mask_img/000000003084.png,experiment,p,p,758.4939517000021
V3,26,22,Female,Right,285,Block 2,1.3871841999934986,0.025,true,bird,bird,occlusion,high,mask,partial viewing,few large,Stimulus\all_stim\occlusion\partialviewing\fewlarge\high\fewlarge_partialViewing_high_bird7.png,mask_img/000000013949.png,experiment,o,o,760.9373177999951
V3,26,22,Female,Right,286,Block 2,0.9144344999949681,0.025,true,bus,bus,occlusion,high,mask,partial viewing,few large,Stimulus\all_stim\occlusion\partialviewing\fewlarge\high\fewlarge_partialViewing_high_bus9.png,mask_img/000000016764.png,experiment,w,w,762.8891518000019
V3,26,22,Female,Right,287,Block 2,0.7826664999884088,0.05,true,person,person,occlusion,low,mask,partial viewing,few large,Stimulus\all_stim\occlusion\partialviewing\fewlarge\low\fewlarge_partialViewing_low_person4.png,mask_img/000000029730.png,experiment,u,u,764.5051783999952
V3,26,22,Female,Right,288,Block 2,0.7309000000095693,0.025,true,bird,bird,occlusion,low,mask,partial viewing,few large,Stimulus\all_stim\occlusion\partialviewing\fewlarge\low\fewlarge_partialViewing_low_bird2.png,mask_img/000000024125.png,experiment,o,o,783.8976610999962
V3,26,22,Female,Right,289,Block 3,0.606076199997915,0.05,true,tree,tree,occlusion,control,mask,partial viewing,many small,Stimulus\all_stim\occlusion\partialviewing\manysmall\control\manysmall_partialViewing_control_tree8.png,mask_img/000000041577.png,experiment,q,q,785.5051805999974
V3,26,22,Female,Right,290,Block 3,0.6683076000044821,0.05,true,cat,cat,occlusion,control,mask,partial viewing,many small,Stimulus\all_stim\occlusion\partialviewing\manysmall\control\manysmall_partialViewing_control_cat3.png,mask_img/000000038381.png,experiment,i,i,786.9210955000017
V3,26,22,Female,Right,291,Block 3,1.1501099000015529,0.05,true,building,building,occlusion,high,mask,partial viewing,many small,Stimulus\all_stim\occlusion\partialviewing\manysmall\high\manysmall_partialViewing_high_building4.png,mask_img/000000046025.png,experiment,p,p,788.9067050000012
V3,26,22,Female,Right,292,Block 3,0.7478056999971159,0.05,true,bus,bus,occlusion,low,mask,partial viewing,few large,Stimulus\all_stim\occlusion\partialviewing\fewlarge\low\fewlarge_partialViewing_low_bus6.png,mask_img/000000026503.png,experiment,w,w,790.3933569999936
V3,26,22,Female,Right,293,Block 3,0.5334746000007726,0.1,true,firehydrant,firehydrant,occlusion,control,mask,partial viewing,many small,Stimulus\all_stim\occlusion\partialviewing\manysmall\control\manysmall_partialViewing_control_firehydrant2.png,mask_img/000000039089.png,experiment,e,e,791.9897332999972
V3,26,22,Female,Right,294,Block 3,0.6353199000004679,0.1,true,person,person,occlusion,control,mask,partial viewing,many small,Stimulus\all_stim\occlusion\partialviewing\manysmall\control\manysmall_partialViewing_control_person10.png,mask_img/000000039778.png,experiment,u,u,793.7078353999968
V3,26,22,Female,Right,295,Block 3,0.7175443000014639,0.025,true,bus,bus,occlusion,control,mask,partial viewing,few large,Stimulus\all_stim\occlusion\partialviewing\fewlarge\control\fewlarge_partialViewing_control_bus2.png,mask_img/000000005359.png,experiment,w,w,795.5057817000052
V3,26,22,Female,Right,296,Block 3,0.8563599000044633,0.025,true,tree,tree,occlusion,low,mask,partial viewing,many small,Stimulus\all_stim\occlusion\partialviewing\manysmall\low\manysmall_partialViewing_low_tree8.png,mask_img/000000063804.png,experiment,q,q,797.5051523000002
V3,26,22,Female,Right,297,Block 3,0.5959329000033904,0.05,true,person,person,occlusion,control,mask,partial viewing,few large,Stimulus\all_stim\occlusion\partialviewing\fewlarge\control\fewlarge_partialViewing_control_person6.png,mask_img/000000009469.png,experiment,u,u,799.142325599998
V3,26,22,Female,Right,298,Block 3,1.7226713999989443,0.025,true,banana,banana,occlusion,low,mask,partial viewing,many small,Stimulus\all_stim\occlusion\partialviewing\manysmall\low\manysmall_partialViewing_low_banana9.png,mask_img/000000055652.png,experiment,r,r,802.0011416000052
V3,26,22,Female,Right,299,Block 3,0.6268998999876203,0.025,true,building,building,occlusion,high,mask,partial viewing,few large,Stimulus\all_stim\occlusion\partialviewing\fewlarge\high\fewlarge_partialViewing_high_building7.png,mask_img/000000015155.png,experiment,p,p,803.4490969000035
V3,26,22,Female,Right,300,Block 3,2.0422964000026695,0.1,true,tree,tree,occlusion,high,mask,partial viewing,few large,Stimulus\all_stim\occlusion\partialviewing\fewlarge\high\fewlarge_partialViewing_high_tree4.png,mask_img/000000021981.png,experiment,q,q,806.2096299999976
V3,26,22,Female,Right,301,Block 3,0.6224405999964802,0.05,true,building,building,occlusion,control,mask,partial viewing,many small,Stimulus\all_stim\occlusion\partialviewing\manysmall\control\manysmall_partialViewing_control_building8.png,mask_img/000000036091.png,experiment,p,p,807.7933415000007
V3,26,22,Female,Right,302,Block 3,0.5860582000022987,0.05,true,person,person,occlusion,control,mask,partial viewing,many small,Stimulus\all_stim\occlusion\partialviewing\manysmall\control\manysmall_partialViewing_control_person8.png,mask_img/000000040466.png,experiment,u,u,809.2793876000069
V3,26,22,Female,Right,303,Block 3,0.6000880000065081,0.1,true,person,person,occlusion,control,mask,partial viewing,few large,Stimulus\all_stim\occlusion\partialviewing\fewlarge\control\fewlarge_partialViewing_control_person1.png,mask_img/000000008341.png,experiment,u,u,810.8304419000051
V3,26,22,Female,Right,304,Block 3,0.6656597000110196,0.05,true,banana,banana,occlusion,control,mask,partial viewing,many small,Stimulus\all_stim\occlusion\partialviewing\manysmall\control\manysmall_partialViewing_control_banana5.png,mask_img/000000033669.png,experiment,r,r,812.6330963000073
V3,26,22,Female,Right,305,Block 3,0.7345542999973986,0.025,true,firehydrant,firehydrant,occlusion,high,mask,partial viewing,few large,Stimulus\all_stim\occlusion\partialviewing\fewlarge\high\fewlarge_partialViewing_high_firehydrant2.png,mask_img/000000018743.png,experiment,e,e,814.2411147999956
V3,26,22,Female,Right,306,Block 3,0.8852132000029087,0.1,true,cat,cat,occlusion,control,mask,partial viewing,few large,Stimulus\all_stim\occlusion\partialviewing\fewlarge\control\fewlarge_partialViewing_control_cat7.png,mask_img/000000007325.png,experiment,i,i,816.0572649999958
V3,26,22,Female,Right,307,Block 3,0.7764166000124533,0.05,false,person,banana,occlusion,control,mask,partial viewing,few large,Stimulus\all_stim\occlusion\partialviewing\fewlarge\control\fewlarge_partialViewing_control_person1.png,mask_img/000000008341.png,experiment,r,u,817.6975495999941
V3,26,22,Female,Right,308,Block 3,1.2449138000083622,0.025,true,firehydrant,firehydrant,occlusion,low,mask,partial viewing,few large,Stimulus\all_stim\occlusion\partialviewing\fewlarge\low\fewlarge_partialViewing_low_firehydrant9.png,mask_img/000000029056.png,experiment,e,e,820.0094278000033
V3,26,22,Female,Right,309,Block 3,0.8938025999959791,0.1,true,tree,tree,occlusion,low,mask,partial viewing,few large,Stimulus\all_stim\occlusion\partialviewing\fewlarge\low\fewlarge_partialViewing_low_tree7.png,mask_img/000000032906.png,experiment,q,q,821.577102700001
V3,26,22,Female,Right,310,Block 3,1.0214888000045903,0.05,true,tree,tree,occlusion,high,mask,partial viewing,many small,Stimulus\all_stim\occlusion\partialviewing\manysmall\high\manysmall_partialViewing_high_tree5.png,mask_img/000000053410.png,experiment,q,q,823.4893231000024
V3,26,22,Female,Right,311,Block 3,1.0019700999982888,0.025,true,person,person,occlusion,low,mask,partial viewing,many small,Stimulus\all_stim\occlusion\partialviewing\manysmall\low\manysmall_partialViewing_low_person1.png,mask_img/000000061780.png,experiment,u,u,825.2654100000073
V3,26,22,Female,Right,312,Block 3,0.7074768000020413,0.1,true,cat,cat,occlusion,control,mask,partial viewing,many small,Stimulus\all_stim\occlusion\partialviewing\manysmall\control\manysmall_partialViewing_control_cat8.png,mask_img/000000038817.png,experiment,i,i,826.7292963000073
V3,26,22,Female,Right,313,Block 3,0.6180442000040784,0.05,true,bird,bird,occlusion,high,mask,partial viewing,few large,Stimulus\all_stim\occlusion\partialviewing\fewlarge\high\fewlarge_partialViewing_high_bird5.png,mask_img/000000013914.png,experiment,o,o,828.1131165999977
V3,26,22,Female,Right,314,Block 3,0.7055481999996118,0.05,true,bus,bus,occlusion,control,mask,partial viewing,few large,Stimulus\all_stim\occlusion\partialviewing\fewlarge\control\fewlarge_partialViewing_control_bus6.png,mask_img/000000005862.png,experiment,w,w,829.4891699
V3,26,22,Female,Right,315,Block 3,0.7061838999943575,0.1,true,tree,tree,occlusion,control,mask,partial viewing,few large,Stimulus\all_stim\occlusion\partialviewing\fewlarge\control\fewlarge_partialViewing_control_tree3.png,mask_img/000000010566.png,experiment,q,q,831.1930529999954
V3,26,22,Female,Right,316,Block 3,1.792890400000033,0.1,true,firehydrant,firehydrant,occlusion,low,mask,partial viewing,many small,Stimulus\all_stim\occlusion\partialviewing\manysmall\low\manysmall_partialViewing_low_firehydrant7.png,mask_img/000000061084.png,experiment,e,e,833.9219072999986
V3,26,22,Female,Right,317,Block 3,0.7326662999985274,0.025,true,tree,tree,occlusion,control,mask,partial viewing,many small,Stimulus\all_stim\occlusion\partialviewing\manysmall\control\manysmall_partialViewing_control_tree2.png,mask_img/000000041008.png,experiment,q,q,835.4894600999978
V3,26,22,Female,Right,318,Block 3,1.0697272999968845,0.05,true,bus,bus,occlusion,high,mask,partial viewing,few large,Stimulus\all_stim\occlusion\partialviewing\fewlarge\high\fewlarge_partialViewing_high_bus3.png,mask_img/000000015908.png,experiment,w,w,837.3051345999993
V3,26,22,Female,Right,319,Block 3,0.6785039000096731,0.025,true,banana,banana,occlusion,control,mask,partial viewing,few large,Stimulus\all_stim\occlusion\partialviewing\fewlarge\control\fewlarge_partialViewing_control_banana9.png,mask_img/000000000731.png,experiment,r,r,839.0412933000043
V3,26,22,Female,Right,320,Block 3,0.7698672999977134,0.05,true,tree,tree,occlusion,high,mask,partial viewing,many small,Stimulus\all_stim\occlusion\partialviewing\manysmall\high\manysmall_partialViewing_high_tree4.png,mask_img/000000053143.png,experiment,q,q,840.5530633000017
V3,26,22,Female,Right,321,Block 3,0.681330599996727,0.1,true,bird,bird,occlusion,low,mask,partial viewing,few large,Stimulus\all_stim\occlusion\partialviewing\fewlarge\low\fewlarge_partialViewing_low_bird10.png,mask_img/000000023988.png,experiment,o,o,842.2012976999977
V3,26,22,Female,Right,322,Block 3,0.7649990000063553,0.1,true,banana,banana,occlusion,control,mask,partial viewing,few large,Stimulus\all_stim\occlusion\partialviewing\fewlarge\control\fewlarge_partialViewing_control_banana3.png,mask_img/000000000394.png,experiment,r,r,844.0977947000065
V3,26,22,Female,Right,323,Block 3,1.0541532000061125,0.025,false,bird,cat,occlusion,high,mask,partial viewing,many small,Stimulus\all_stim\occlusion\partialviewing\manysmall\high\manysmall_partialViewing_high_bird10.png,mask_img/000000044065.png,experiment,i,o,846.1533683000016
V3,26,22,Female,Right,324,Block 3,0.8764558999973815,0.05,true,banana,banana,occlusion,high,mask,partial viewing,many small,Stimulus\all_stim\occlusion\partialviewing\manysmall\high\manysmall_partialViewing_high_banana10.png,mask_img/000000042196.png,experiment,r,r,847.8653378000017
V3,26,22,Female,Right,325,Block 3,0.5614045999973314,0.025,true,building,building,occlusion,control,mask,partial viewing,many small,Stimulus\all_stim\occlusion\partialviewing\manysmall\control\manysmall_partialViewing_control_building8.png,mask_img/000000036091.png,experiment,p,p,849.1595637999999
V3,26,22,Female,Right,326,Block 3,0.6889800999924773,0.025,true,bird,bird,occlusion,control,mask,partial viewing,many small,Stimulus\all_stim\occlusion\partialviewing\manysmall\control\manysmall_partialViewing_control_bird5.png,mask_img/000000034930.png,experiment,o,o,850.5610677999939
V3,26,22,Female,Right,327,Block 3,0.5971275000047171,0.05,false,bird,building,occlusion,low,mask,partial viewing,few large,Stimulus\all_stim\occlusion\partialviewing\fewlarge\low\fewlarge_partialViewing_low_bird8.png,mask_img/000000024404.png,experiment,p,o,851.8269820999994
V3,26,22,Female,Right,328,Block 3,0.9676246000017272,0.025,false,building,banana,occlusion,high,mask,partial viewing,few large,Stimulus\all_stim\occlusion\partialviewing\fewlarge\high\fewlarge_partialViewing_high_building4.png,mask_img/000000014592.png,experiment,r,p,853.8812529999996
V3,26,22,Female,Right,329,Block 3,0.7848510000039823,0.05,true,building,building,occlusion,high,mask,partial viewing,many small,Stimulus\all_stim\occlusion\partialviewing\manysmall\high\manysmall_partialViewing_high_building10.png,mask_img/000000044989.png,experiment,p,p,855.7291892000067
V3,26,22,Female,Right,330,Block 3,0.7229572000069311,0.1,true,building,building,occlusion,high,mask,partial viewing,many small,Stimulus\all_stim\occlusion\partialviewing\manysmall\high\manysmall_partialViewing_high_building2.png,mask_img/000000045306.png,experiment,p,p,857.3373001
V3,26,22,Female,Right,331,Block 3,0.5668925000063609,0.1,true,person,person,occlusion,control,mask,partial viewing,few large,Stimulus\all_stim\occlusion\partialviewing\fewlarge\control\fewlarge_partialViewing_control_person9.png,mask_img/000000009809.png,experiment,u,u,859.0297390000051
V3,26,22,Female,Right,332,Block 3,1.0018280999938725,0.1,true,bus,bus,occlusion,control,mask,partial viewing,few large,Stimulus\all_stim\occlusion\partialviewing\fewlarge\control\fewlarge_partialViewing_control_bus2.png,mask_img/000000005359.png,experiment,w,w,861.1532023000036
V3,26,22,Female,Right,333,Block 3,1.3901960000075633,0.05,false,person,banana,occlusion,high,mask,partial viewing,many small,Stimulus\all_stim\occlusion\partialviewing\manysmall\high\manysmall_partialViewing_high_person6.png,mask_img/000000052426.png,experiment,r,u,863.6588285000034
V3,26,22,Female,Right,334,Block 3,0.883319600005052,0.025,true,bus,bus,occlusion,low,mask,partial viewing,few large,Stimulus\all_stim\occlusion\partialviewing\fewlarge\low\fewlarge_partialViewing_low_bus6.png,mask_img/000000026503.png,experiment,w,w,865.2974437999947
V3,26,22,Female,Right,335,Block 3,0.7985353999974905,0.05,true,bird,bird,occlusion,low,mask,partial viewing,few large,Stimulus\all_stim\occlusion\partialviewing\fewlarge\low\fewlarge_partialViewing_low_bird6.png,mask_img/000000024247.png,experiment,o,o,866.9610517999972
V3,26,22,Female,Right,336,Block 3,0.7637316999898758,0.05,true,banana,banana,occlusion,high,mask,partial viewing,few large,Stimulus\all_stim\occlusion\partialviewing\fewlarge\high\fewlarge_partialViewing_high_banana4.png,mask_img/000000012377.png,experiment,r,r,868.7689544000023
V3,26,22,Female,Right,337,Block 3,0.7483848999982001,0.05,true,building,building,occlusion,high,mask,partial viewing,few large,Stimulus\all_stim\occlusion\partialviewing\fewlarge\high\fewlarge_partialViewing_high_building2.png,mask_img/000000014472.png,experiment,p,p,870.457016100001
V3,26,22,Female,Right,338,Block 3,0.6942621999914991,0.025,true,bus,bus,occlusion,high,mask,partial viewing,many small,Stimulus\all_stim\occlusion\partialviewing\manysmall\high\manysmall_partialViewing_high_bus4.png,mask_img/000000047316.png,experiment,w,w,872.1370936000021
