Version,pt_num,Age,Gender,Handedness,trial_nbr,block_number,rt,soa,acc,category,choiced_category,manipulation,difficulty,mask,type_occl,size_occl,filename,mask_filename,task,pressed_key,correct_key,Experiment Duration
V3,13,23,Female,Right,1,Training,3.245481900004961,0.1,true,tree,tree,occlusion,high,mask,partial viewing,few large,Training_Stimulus\fewlarge_partialViewing_high_tree9.png,mask_img/000000002197.png,training,e,e,134.37862019999739
V3,13,23,Female,Right,2,Training,2.3929190000053495,0.05,false,banana,building,occlusion,high,mask,partial viewing,few large,Training_Stimulus\fewlarge_partialViewing_high_banana454.png,mask_img/000000000690.png,training,u,p,138.15969849999965
V3,13,23,Female,Right,3,Training,3.4070493999970495,0.05,false,cat,bird,occlusion,low,mask,partial viewing,few large,Training_Stimulus\fewlarge_partialViewing_low_cat432.png,mask_img/000000003084.png,training,i,o,142.7930783999982
V3,13,23,Female,Right,4,Training,1.3406641999972635,0.1,true,cat,cat,occlusion,high,mask,partial viewing,many small,Training_Stimulus\manysmall_partialViewing_high_cat432.png,mask_img/000000005862.png,training,o,o,145.57419829999708
V3,13,23,Female,Right,5,Training,3.2906816999966395,0.1,false,bird,cat,occlusion,high,mask,partial viewing,many small,Training_Stimulus\manysmall_partialViewing_high_bird4.png,mask_img/000000005418.png,training,o,i,150.16218429999572
V3,13,23,Female,Right,6,Training,1.3834586999946623,0.05,true,banana,banana,occlusion,low,mask,partial viewing,few large,Training_Stimulus\fewlarge_partialViewing_low_banana454.png,mask_img/000000002337.png,training,p,p,152.9747223000013
V3,13,23,Female,Right,7,Training,1.9455769000051077,0.025,false,bus,building,occlusion,low,mask,partial viewing,many small,Training_Stimulus\manysmall_partialViewing_low_bus180.png,mask_img/000000006709.png,training,u,q,156.2887477999975
V3,13,23,Female,Right,8,Training,1.437797300000966,0.025,true,bird,bird,occlusion,control,mask,partial viewing,few large,Training_Stimulus\fewlarge_partialViewing_control_bird4.png,mask_img/000000000109.png,training,i,i,158.88275249999424
V3,13,23,Female,Right,9,Training,1.375589300005231,0.1,true,cat,cat,occlusion,low,mask,partial viewing,few large,Training_Stimulus\fewlarge_partialViewing_low_cat432.png,mask_img/000000003084.png,training,o,o,161.64879539999674
V3,13,23,Female,Right,10,Training,1.0233978000032948,0.05,true,cat,cat,occlusion,control,mask,partial viewing,few large,Training_Stimulus\fewlarge_partialViewing_control_cat432.png,mask_img/000000000438.png,training,o,o,163.97688869999547
V3,13,23,Female,Right,11,Training,3.3748133999979473,0.05,false,banana,firehydrant,occlusion,high,mask,partial viewing,many small,Training_Stimulus\manysmall_partialViewing_high_banana454.png,mask_img/000000005359.png,training,r,p,168.71119149999868
V3,13,23,Female,Right,12,Training,1.0615658000024268,0.025,true,cat,cat,occlusion,high,mask,partial viewing,few large,Training_Stimulus\fewlarge_partialViewing_high_cat432.png,mask_img/000000001647.png,training,o,o,170.96270129999903
V3,13,23,Female,Right,13,Training,2.9673678999970434,0.1,false,person,bird,occlusion,high,mask,partial viewing,many small,Training_Stimulus\manysmall_partialViewing_high_person189.png,mask_img/000000006153.png,training,i,w,175.4314532999997
V3,13,23,Female,Right,14,Training,1.4266996000005747,0.05,true,building,building,occlusion,low,mask,partial viewing,many small,Training_Stimulus\manysmall_partialViewing_low_building24.png,mask_img/000000006489.png,training,u,u,178.1501516999997
V3,13,23,Female,Right,15,Training,1.2159315000026254,0.05,true,bus,bus,occlusion,control,mask,partial viewing,few large,Training_Stimulus\fewlarge_partialViewing_control_bus180.png,mask_img/000000000394.png,training,q,q,180.85493299999507
V3,13,23,Female,Right,16,Training,1.305682700003672,0.05,true,banana,banana,occlusion,low,mask,partial viewing,many small,Training_Stimulus\manysmall_partialViewing_low_banana454.png,mask_img/000000006437.png,training,p,p,183.51116829999955
V3,13,23,Female,Right,17,Training,4.352930599998217,0.1,true,tree,tree,occlusion,low,mask,partial viewing,few large,Training_Stimulus\fewlarge_partialViewing_low_tree9.png,mask_img/000000003694.png,training,e,e,189.21788879999804
V3,13,23,Female,Right,18,Training,1.141532699999516,0.1,true,banana,banana,occlusion,control,mask,partial viewing,few large,Training_Stimulus\fewlarge_partialViewing_control_banana454.png,mask_img/000000000042.png,training,p,p,191.76112579999608
V3,13,23,Female,Right,19,Training,1.730464899999788,0.05,true,person,person,occlusion,high,mask,partial viewing,few large,Training_Stimulus\fewlarge_partialViewing_high_person189.png,mask_img/000000001997.png,training,w,w,194.85489229999803
V3,13,23,Female,Right,20,Training,2.1789283999969484,0.05,true,building,building,occlusion,control,mask,partial viewing,many small,Training_Stimulus\manysmall_partialViewing_control_building24.png,mask_img/000000004739.png,training,u,u,198.37193319999642
V3,13,23,Female,Right,21,Training,10.241121899998689,0.05,false,tree,bird,occlusion,high,mask,partial viewing,few large,Training_Stimulus\fewlarge_partialViewing_high_tree9.png,mask_img/000000002197.png,training,i,e,209.90234329999657
V3,13,23,Female,Right,22,Training,2.3755270000037854,0.05,true,tree,tree,occlusion,low,mask,partial viewing,many small,Training_Stimulus\manysmall_partialViewing_low_tree9.png,mask_img/000000007325.png,training,e,e,213.41796249999607
V3,13,23,Female,Right,23,Training,1.1350463999988278,0.025,true,tree,tree,occlusion,control,mask,partial viewing,few large,Training_Stimulus\fewlarge_partialViewing_control_tree9.png,mask_img/000000000626.png,training,e,e,215.82421869999962
V3,13,23,Female,Right,24,Training,1.41615539999475,0.025,true,bus,bus,occlusion,high,mask,partial viewing,few large,Training_Stimulus\fewlarge_partialViewing_high_bus180.png,mask_img/000000001053.png,training,q,q,218.60550309999962
V3,13,23,Female,Right,25,Training,1.4794227999955183,0.1,true,tree,tree,occlusion,control,mask,partial viewing,many small,Training_Stimulus\manysmall_partialViewing_control_tree9.png,mask_img/000000005282.png,training,e,e,221.44913399999496
V3,13,23,Female,Right,26,Training,3.7024248000016087,0.025,false,bird,building,occlusion,high,mask,partial viewing,many small,Training_Stimulus\manysmall_partialViewing_high_bird4.png,mask_img/000000005418.png,training,u,i,226.38703710000118
V3,13,23,Female,Right,27,Training,1.8035653999977512,0.05,true,person,person,occlusion,control,mask,partial viewing,few large,Training_Stimulus\fewlarge_partialViewing_control_person189.png,mask_img/000000000595.png,training,w,w,229.66833570000017
V3,13,23,Female,Right,28,Training,1.9218471999993199,0.1,true,firehydrant,firehydrant,occlusion,high,mask,partial viewing,many small,Training_Stimulus\manysmall_partialViewing_high_firehydrant90.png,mask_img/000000006146.png,training,r,r,232.73200499999803
V3,13,23,Female,Right,29,Training,1.226004299998749,0.025,true,tree,tree,occlusion,control,mask,partial viewing,many small,Training_Stimulus\manysmall_partialViewing_control_tree9.png,mask_img/000000005282.png,training,e,e,235.2816479999965
V3,13,23,Female,Right,30,Training,1.1537234999996144,0.1,true,tree,tree,occlusion,high,mask,partial viewing,many small,Training_Stimulus\manysmall_partialViewing_high_tree9.png,mask_img/000000006263.png,training,e,e,237.84157340000093
V3,13,23,Female,Right,31,Training,2.318406899998081,0.1,true,firehydrant,firehydrant,occlusion,low,mask,partial viewing,many small,Training_Stimulus\manysmall_partialViewing_low_firehydrant90.png,mask_img/000000006870.png,training,r,r,241.54370650000055
V3,13,23,Female,Right,32,Training,1.2818271000069217,0.025,false,person,firehydrant,occlusion,low,mask,partial viewing,few large,Training_Stimulus\fewlarge_partialViewing_low_person189.png,mask_img/000000003483.png,training,r,w,244.12196699999913
V3,13,23,Female,Right,33,Training,1.3284682000012253,0.025,true,person,person,occlusion,control,mask,partial viewing,few large,Training_Stimulus\fewlarge_partialViewing_control_person189.png,mask_img/000000000595.png,training,w,w,246.88896340000065
V3,13,23,Female,Right,34,Training,1.120496000003186,0.05,true,tree,tree,occlusion,low,mask,partial viewing,few large,Training_Stimulus\fewlarge_partialViewing_low_tree9.png,mask_img/000000003694.png,training,e,e,249.51409710000007
V3,13,23,Female,Right,35,Training,3.2230028999983915,0.025,false,bus,building,occlusion,high,mask,partial viewing,many small,Training_Stimulus\manysmall_partialViewing_high_bus180.png,mask_img/000000005615.png,training,u,q,254.21721799999796
V3,13,23,Female,Right,36,Training,2.3355133999939426,0.05,true,person,person,occlusion,high,mask,partial viewing,many small,Training_Stimulus\manysmall_partialViewing_high_person189.png,mask_img/000000006153.png,training,w,w,257.76410380000016
V3,13,23,Female,Right,37,Training,1.9336564999975963,0.025,true,bird,bird,occlusion,control,mask,partial viewing,many small,Training_Stimulus\manysmall_partialViewing_control_bird4.png,mask_img/000000004642.png,training,i,i,260.8420571999959
V3,13,23,Female,Right,38,Training,1.1418387000012444,0.1,true,banana,banana,occlusion,low,mask,partial viewing,many small,Training_Stimulus\manysmall_partialViewing_low_banana454.png,mask_img/000000006437.png,training,p,p,263.48246529999597
V3,13,23,Female,Right,39,Training,1.7073094999941532,0.05,true,firehydrant,firehydrant,occlusion,control,mask,partial viewing,few large,Training_Stimulus\fewlarge_partialViewing_control_firehydrant90.png,mask_img/000000000459.png,training,r,r,266.6245995999998
V3,13,23,Female,Right,40,Training,1.2725791999982903,0.05,true,building,building,occlusion,low,mask,partial viewing,few large,Training_Stimulus\fewlarge_partialViewing_low_building24.png,mask_img/000000002822.png,training,u,u,269.17145419999724
V3,13,23,Female,Right,41,Training,2.161562299996149,0.025,true,bus,bus,occlusion,control,mask,partial viewing,few large,Training_Stimulus\fewlarge_partialViewing_control_bus180.png,mask_img/000000000394.png,training,q,q,272.62266850000015
V3,13,23,Female,Right,42,Training,1.213593000000401,0.05,true,bus,bus,occlusion,low,mask,partial viewing,few large,Training_Stimulus\fewlarge_partialViewing_low_bus180.png,mask_img/000000002892.png,training,q,q,274.966270799996
V3,13,23,Female,Right,43,Training,1.3082913999969605,0.1,true,person,person,occlusion,control,mask,partial viewing,many small,Training_Stimulus\manysmall_partialViewing_control_person189.png,mask_img/000000005142.png,training,w,w,277.54867259999446
V3,13,23,Female,Right,1,Block 1,3.298621000001731,0.025,true,building,building,occlusion,control,mask,partial viewing,many small,Stimulus\all_stim\occlusion\partialviewing\manysmall\control\manysmall_partialViewing_control_building10.png,mask_img/000000035857.png,experiment,u,u,322.3182047999944
V3,13,23,Female,Right,2,Block 1,1.315853899999638,0.05,false,cat,bird,occlusion,high,mask,partial viewing,many small,Stimulus\all_stim\occlusion\partialviewing\manysmall\high\manysmall_partialViewing_high_cat8.png,mask_img/000000049763.png,experiment,i,o,324.4784403999947
V3,13,23,Female,Right,3,Block 1,1.639799899996433,0.05,true,firehydrant,firehydrant,occlusion,low,mask,partial viewing,few large,Stimulus\all_stim\occlusion\partialviewing\fewlarge\low\fewlarge_partialViewing_low_firehydrant1.png,mask_img/000000028304.png,experiment,r,r,327.2059638999999
V3,13,23,Female,Right,4,Block 1,1.2702776000005542,0.05,false,person,firehydrant,occlusion,high,mask,partial viewing,many small,Stimulus\all_stim\occlusion\partialviewing\manysmall\high\manysmall_partialViewing_high_person9.png,mask_img/000000052619.png,experiment,r,w,329.56599289999576
V3,13,23,Female,Right,5,Block 1,1.1997531000015442,0.1,true,bus,bus,occlusion,control,mask,partial viewing,many small,Stimulus\all_stim\occlusion\partialviewing\manysmall\control\manysmall_partialViewing_control_bus4.png,mask_img/000000036966.png,experiment,q,q,331.6622045999975
V3,13,23,Female,Right,6,Block 1,1.3146730000007665,0.025,true,banana,banana,occlusion,high,mask,partial viewing,many small,Stimulus\all_stim\occlusion\partialviewing\manysmall\high\manysmall_partialViewing_high_banana8.png,mask_img/000000043291.png,experiment,p,p,333.7901821999985
V3,13,23,Female,Right,7,Block 1,1.4568205000032322,0.025,false,tree,banana,occlusion,low,mask,partial viewing,many small,Stimulus\all_stim\occlusion\partialviewing\manysmall\low\manysmall_partialViewing_low_tree8.png,mask_img/000000063804.png,experiment,p,e,336.2461487999972
V3,13,23,Female,Right,8,Block 1,1.954874800001562,0.025,true,tree,tree,occlusion,high,mask,partial viewing,many small,Stimulus\all_stim\occlusion\partialviewing\manysmall\high\manysmall_partialViewing_high_tree5.png,mask_img/000000053410.png,experiment,e,e,339.1583985999969
V3,13,23,Female,Right,9,Block 1,1.0349896999978228,0.025,true,person,person,occlusion,control,mask,partial viewing,many small,Stimulus\all_stim\occlusion\partialviewing\manysmall\control\manysmall_partialViewing_control_person9.png,mask_img/000000040771.png,experiment,w,w,341.32609539999976
V3,13,23,Female,Right,10,Block 1,1.66525140000158,0.025,false,bus,building,occlusion,low,mask,partial viewing,many small,Stimulus\all_stim\occlusion\partialviewing\manysmall\low\manysmall_partialViewing_low_bus4.png,mask_img/000000058701.png,experiment,u,q,343.74213320000126
V3,13,23,Female,Right,11,Block 1,1.3657995000030496,0.05,true,bird,bird,occlusion,control,mask,partial viewing,few large,Stimulus\all_stim\occlusion\partialviewing\fewlarge\control\fewlarge_partialViewing_control_bird2.png,mask_img/000000001647.png,experiment,i,i,345.99004299999797
V3,13,23,Female,Right,12,Block 1,2.227609300003678,0.025,true,firehydrant,firehydrant,occlusion,control,mask,partial viewing,few large,Stimulus\all_stim\occlusion\partialviewing\fewlarge\control\fewlarge_partialViewing_control_firehydrant6.png,mask_img/000000008025.png,experiment,r,r,349.08627319999505
V3,13,23,Female,Right,13,Block 1,1.8754810999962501,0.025,true,bird,bird,occlusion,low,mask,partial viewing,few large,Stimulus\all_stim\occlusion\partialviewing\fewlarge\low\fewlarge_partialViewing_low_bird5.png,mask_img/000000024239.png,experiment,i,i,352.0302248000007
V3,13,23,Female,Right,14,Block 1,2.282590300004813,0.1,true,bus,bus,occlusion,low,mask,partial viewing,few large,Stimulus\all_stim\occlusion\partialviewing\fewlarge\low\fewlarge_partialViewing_low_bus5.png,mask_img/000000026497.png,experiment,q,q,355.15029089999734
V3,13,23,Female,Right,15,Block 1,1.4486034000001382,0.05,true,tree,tree,occlusion,low,mask,partial viewing,many small,Stimulus\all_stim\occlusion\partialviewing\manysmall\low\manysmall_partialViewing_low_tree9.png,mask_img/000000063867.png,experiment,e,e,357.64629050000076
V3,13,23,Female,Right,16,Block 1,1.119245999994746,0.05,true,firehydrant,firehydrant,occlusion,high,mask,partial viewing,few large,Stimulus\all_stim\occlusion\partialviewing\fewlarge\high\fewlarge_partialViewing_high_firehydrant3.png,mask_img/000000018864.png,experiment,r,r,359.494420899995
V3,13,23,Female,Right,17,Block 1,1.3254391999944346,0.025,false,firehydrant,bird,occlusion,low,mask,partial viewing,many small,Stimulus\all_stim\occlusion\partialviewing\manysmall\low\manysmall_partialViewing_low_firehydrant1.png,mask_img/000000060464.png,experiment,i,r,361.83807479999814
V3,13,23,Female,Right,18,Block 1,1.2054669999997714,0.1,true,cat,cat,occlusion,control,mask,partial viewing,many small,Stimulus\all_stim\occlusion\partialviewing\manysmall\control\manysmall_partialViewing_control_cat6.png,mask_img/000000038753.png,experiment,o,o,363.80616960000043
V3,13,23,Female,Right,19,Block 1,1.5525288999997429,0.025,false,bus,firehydrant,occlusion,high,mask,partial viewing,many small,Stimulus\all_stim\occlusion\partialviewing\manysmall\high\manysmall_partialViewing_high_bus3.png,mask_img/000000047229.png,experiment,r,q,366.1021754999965
V3,13,23,Female,Right,20,Block 1,1.4360525999945821,0.05,true,tree,tree,occlusion,control,mask,partial viewing,few large,Stimulus\all_stim\occlusion\partialviewing\fewlarge\control\fewlarge_partialViewing_control_tree2.png,mask_img/000000010560.png,experiment,e,e,368.38236340000003
V3,13,23,Female,Right,21,Block 1,1.30574969999725,0.1,false,building,bird,occlusion,control,mask,partial viewing,many small,Stimulus\all_stim\occlusion\partialviewing\manysmall\control\manysmall_partialViewing_control_building10.png,mask_img/000000035857.png,experiment,i,u,370.81429930000013
V3,13,23,Female,Right,22,Block 1,1.0273162000012235,0.025,true,banana,banana,occlusion,high,mask,partial viewing,many small,Stimulus\all_stim\occlusion\partialviewing\manysmall\high\manysmall_partialViewing_high_banana9.png,mask_img/000000043579.png,experiment,p,p,372.77405039999576
V3,13,23,Female,Right,23,Block 1,1.5160558999996283,0.05,true,firehydrant,firehydrant,occlusion,high,mask,partial viewing,few large,Stimulus\all_stim\occlusion\partialviewing\fewlarge\high\fewlarge_partialViewing_high_firehydrant10.png,mask_img/000000018441.png,experiment,r,r,374.9821372000006
V3,13,23,Female,Right,24,Block 1,1.5445111000008183,0.05,true,cat,cat,occlusion,control,mask,partial viewing,many small,Stimulus\all_stim\occlusion\partialviewing\manysmall\control\manysmall_partialViewing_control_cat5.png,mask_img/000000038601.png,experiment,o,o,377.3824026000002
V3,13,23,Female,Right,25,Block 1,0.9207944000008865,0.05,false,person,bus,occlusion,high,mask,partial viewing,few large,Stimulus\all_stim\occlusion\partialviewing\fewlarge\high\fewlarge_partialViewing_high_person1.png,mask_img/000000019759.png,experiment,q,w,379.158299499999
V3,13,23,Female,Right,26,Block 1,1.5618438000019523,0.05,true,banana,banana,occlusion,control,mask,partial viewing,few large,Stimulus\all_stim\occlusion\partialviewing\fewlarge\control\fewlarge_partialViewing_control_banana1.png,mask_img/000000000042.png,experiment,p,p,381.44605690000026
V3,13,23,Female,Right,27,Block 1,1.2464173000043957,0.1,true,bus,bus,occlusion,control,mask,partial viewing,few large,Stimulus\all_stim\occlusion\partialviewing\fewlarge\control\fewlarge_partialViewing_control_bus1.png,mask_img/000000005142.png,experiment,q,q,383.42208299999766
V3,13,23,Female,Right,28,Block 1,1.1926779000059469,0.05,true,banana,banana,occlusion,high,mask,partial viewing,few large,Stimulus\all_stim\occlusion\partialviewing\fewlarge\high\fewlarge_partialViewing_high_banana3.png,mask_img/000000012313.png,experiment,p,p,385.5748411999957
V3,13,23,Female,Right,29,Block 1,1.9604796999992686,0.05,true,bird,bird,occlusion,control,mask,partial viewing,few large,Stimulus\all_stim\occlusion\partialviewing\fewlarge\control\fewlarge_partialViewing_control_bird7.png,mask_img/000000002774.png,experiment,i,i,388.4382464999944
V3,13,23,Female,Right,30,Block 1,1.0381803999989643,0.05,true,cat,cat,occlusion,low,mask,partial viewing,few large,Stimulus\all_stim\occlusion\partialviewing\fewlarge\low\fewlarge_partialViewing_low_cat5.png,mask_img/000000027704.png,experiment,o,o,390.52606549999473
V3,13,23,Female,Right,31,Block 1,1.4335582999992766,0.05,true,cat,cat,occlusion,high,mask,partial viewing,few large,Stimulus\all_stim\occlusion\partialviewing\fewlarge\high\fewlarge_partialViewing_high_cat2.png,mask_img/000000017352.png,experiment,o,o,392.94210129999556
V3,13,23,Female,Right,32,Block 1,1.2809507999991183,0.025,true,firehydrant,firehydrant,occlusion,high,mask,partial viewing,few large,Stimulus\all_stim\occlusion\partialviewing\fewlarge\high\fewlarge_partialViewing_high_firehydrant6.png,mask_img/000000019134.png,experiment,r,r,395.2798257999966
V3,13,23,Female,Right,33,Block 1,1.1089026999979978,0.025,true,tree,tree,occlusion,control,mask,partial viewing,many small,Stimulus\all_stim\occlusion\partialviewing\manysmall\control\manysmall_partialViewing_control_tree4.png,mask_img/000000041022.png,experiment,e,e,397.1901260999948
V3,13,23,Female,Right,34,Block 1,0.9826351999945473,0.1,true,banana,banana,occlusion,high,mask,partial viewing,few large,Stimulus\all_stim\occlusion\partialviewing\fewlarge\high\fewlarge_partialViewing_high_banana5.png,mask_img/000000012543.png,experiment,p,p,399.32644810000056
V3,13,23,Female,Right,35,Block 1,1.2773933000062243,0.05,true,person,person,occlusion,low,mask,partial viewing,few large,Stimulus\all_stim\occlusion\partialviewing\fewlarge\low\fewlarge_partialViewing_low_person5.png,mask_img/000000029964.png,experiment,w,w,401.5343444999962
V3,13,23,Female,Right,36,Block 1,1.4275342000037199,0.1,false,building,bird,occlusion,high,mask,partial viewing,few large,Stimulus\all_stim\occlusion\partialviewing\fewlarge\high\fewlarge_partialViewing_high_building10.png,mask_img/000000014428.png,experiment,i,u,403.648082599997
V3,13,23,Female,Right,37,Block 1,1.8172532000025967,0.025,true,building,building,occlusion,control,mask,partial viewing,many small,Stimulus\all_stim\occlusion\partialviewing\manysmall\control\manysmall_partialViewing_control_building1.png,mask_img/000000035818.png,experiment,u,u,406.3021718999953
V3,13,23,Female,Right,38,Block 1,1.4844133000005968,0.1,false,firehydrant,person,occlusion,high,mask,partial viewing,few large,Stimulus\all_stim\occlusion\partialviewing\fewlarge\high\fewlarge_partialViewing_high_firehydrant1.png,mask_img/000000017944.png,experiment,w,r,408.4619976999966
V3,13,23,Female,Right,39,Block 1,0.9639816999988398,0.05,true,person,person,occlusion,control,mask,partial viewing,many small,Stimulus\all_stim\occlusion\partialviewing\manysmall\control\manysmall_partialViewing_control_person4.png,mask_img/000000040042.png,experiment,w,w,410.4620212999944
V3,13,23,Female,Right,40,Block 1,4.880041600001277,0.1,true,building,building,occlusion,control,mask,partial viewing,few large,Stimulus\all_stim\occlusion\partialviewing\fewlarge\control\fewlarge_partialViewing_control_building2.png,mask_img/000000003483.png,experiment,u,u,416.1610551999984
V3,13,23,Female,Right,41,Block 1,1.2228739999991376,0.1,true,person,person,occlusion,low,mask,partial viewing,many small,Stimulus\all_stim\occlusion\partialviewing\manysmall\low\manysmall_partialViewing_low_person2.png,mask_img/000000061867.png,experiment,w,w,418.165992299997
V3,13,23,Female,Right,42,Block 1,0.9244640999968396,0.1,true,person,person,occlusion,control,mask,partial viewing,few large,Stimulus\all_stim\occlusion\partialviewing\fewlarge\control\fewlarge_partialViewing_control_person5.png,mask_img/000000009286.png,experiment,w,w,419.9499877999988
V3,13,23,Female,Right,43,Block 1,1.2962120000011055,0.1,false,bird,cat,occlusion,high,mask,partial viewing,many small,Stimulus\all_stim\occlusion\partialviewing\manysmall\high\manysmall_partialViewing_high_bird1.png,mask_img/000000043966.png,experiment,o,i,422.0540450999979
V3,13,23,Female,Right,44,Block 1,1.1079832000032184,0.1,true,building,building,occlusion,low,mask,partial viewing,few large,Stimulus\all_stim\occlusion\partialviewing\fewlarge\low\fewlarge_partialViewing_low_building4.png,mask_img/000000024912.png,experiment,u,u,423.8622944999952
V3,13,23,Female,Right,45,Block 1,0.9535703000001376,0.025,true,firehydrant,firehydrant,occlusion,high,mask,partial viewing,many small,Stimulus\all_stim\occlusion\partialviewing\manysmall\high\manysmall_partialViewing_high_firehydrant4.png,mask_img/000000050412.png,experiment,r,r,425.90406619999703
V3,13,23,Female,Right,46,Block 1,1.0244420000017271,0.025,true,building,building,occlusion,low,mask,partial viewing,many small,Stimulus\all_stim\occlusion\partialviewing\manysmall\low\manysmall_partialViewing_low_building6.png,mask_img/000000057979.png,experiment,u,u,427.7280744999953
V3,13,23,Female,Right,47,Block 1,0.8998582999993232,0.025,true,firehydrant,firehydrant,occlusion,control,mask,partial viewing,many small,Stimulus\all_stim\occlusion\partialviewing\manysmall\control\manysmall_partialViewing_control_firehydrant1.png,mask_img/000000039012.png,experiment,r,r,429.5820664999992
V3,13,23,Female,Right,48,Block 1,1.1455100999955903,0.05,true,tree,tree,occlusion,control,mask,partial viewing,few large,Stimulus\all_stim\occlusion\partialviewing\fewlarge\control\fewlarge_partialViewing_control_tree4.png,mask_img/000000010969.png,experiment,e,e,431.88368069999706
V3,13,23,Female,Right,49,Block 1,1.1089646999971592,0.025,true,tree,tree,occlusion,high,mask,partial viewing,many small,Stimulus\all_stim\occlusion\partialviewing\manysmall\high\manysmall_partialViewing_high_tree1.png,mask_img/000000052784.png,experiment,e,e,433.8859248000008
V3,13,23,Female,Right,50,Block 1,0.9206013000002713,0.025,true,person,person,occlusion,low,mask,partial viewing,few large,Stimulus\all_stim\occlusion\partialviewing\fewlarge\low\fewlarge_partialViewing_low_person1.png,mask_img/000000029090.png,experiment,w,w,435.6621665999992
V3,13,23,Female,Right,51,Block 1,1.0540098000055877,0.025,true,building,building,occlusion,high,mask,partial viewing,few large,Stimulus\all_stim\occlusion\partialviewing\fewlarge\high\fewlarge_partialViewing_high_building7.png,mask_img/000000015155.png,experiment,u,u,437.614216199996
V3,13,23,Female,Right,52,Block 1,1.3371698000046308,0.05,true,bus,bus,occlusion,high,mask,partial viewing,many small,Stimulus\all_stim\occlusion\partialviewing\manysmall\high\manysmall_partialViewing_high_bus10.png,mask_img/000000046805.png,experiment,q,q,439.81405749999976
V3,13,23,Female,Right,53,Block 1,1.7012137999990955,0.025,true,tree,tree,occlusion,low,mask,partial viewing,few large,Stimulus\all_stim\occlusion\partialviewing\fewlarge\low\fewlarge_partialViewing_low_tree10.png,mask_img/000000031454.png,experiment,e,e,442.4781354000006
V3,13,23,Female,Right,54,Block 1,0.9551706999991438,0.025,true,banana,banana,occlusion,low,mask,partial viewing,many small,Stimulus\all_stim\occlusion\partialviewing\manysmall\low\manysmall_partialViewing_low_banana1.png,mask_img/000000054532.png,experiment,p,p,444.29403839999577
V3,13,23,Female,Right,55,Block 1,1.0364241999996011,0.05,true,cat,cat,occlusion,low,mask,partial viewing,few large,Stimulus\all_stim\occlusion\partialviewing\fewlarge\low\fewlarge_partialViewing_low_cat2.png,mask_img/000000027371.png,experiment,o,o,446.01411939999525
V3,13,23,Female,Right,56,Block 1,2.0373025000008056,0.025,true,person,person,occlusion,control,mask,partial viewing,few large,Stimulus\all_stim\occlusion\partialviewing\fewlarge\control\fewlarge_partialViewing_control_person1.png,mask_img/000000008341.png,experiment,w,w,448.91838540000026
V3,13,23,Female,Right,57,Block 1,1.198519400000805,0.1,true,building,building,occlusion,high,mask,partial viewing,few large,Stimulus\all_stim\occlusion\partialviewing\fewlarge\high\fewlarge_partialViewing_high_building2.png,mask_img/000000014472.png,experiment,u,u,450.8783220999976
V3,13,23,Female,Right,58,Block 1,1.0196881000010762,0.1,true,building,building,occlusion,high,mask,partial viewing,many small,Stimulus\all_stim\occlusion\partialviewing\manysmall\high\manysmall_partialViewing_high_building3.png,mask_img/000000045655.png,experiment,u,u,452.9981353999974
V3,13,23,Female,Right,59,Block 1,1.0599934000056237,0.05,true,person,person,occlusion,control,mask,partial viewing,many small,Stimulus\all_stim\occlusion\partialviewing\manysmall\control\manysmall_partialViewing_control_person5.png,mask_img/000000040275.png,experiment,w,w,454.8782296999998
V3,13,23,Female,Right,60,Block 1,1.1550994999997783,0.05,false,bird,person,occlusion,high,mask,partial viewing,many small,Stimulus\all_stim\occlusion\partialviewing\manysmall\high\manysmall_partialViewing_high_bird10.png,mask_img/000000044065.png,experiment,w,i,456.78206299999874
V3,13,23,Female,Right,61,Block 1,1.3372248000014224,0.05,false,building,bird,occlusion,control,mask,partial viewing,many small,Stimulus\all_stim\occlusion\partialviewing\manysmall\control\manysmall_partialViewing_control_building6.png,mask_img/000000036006.png,experiment,i,u,459.1421180999969
V3,13,23,Female,Right,62,Block 1,1.7800158000027295,0.05,false,bus,building,occlusion,control,mask,partial viewing,many small,Stimulus\all_stim\occlusion\partialviewing\manysmall\control\manysmall_partialViewing_control_bus2.png,mask_img/000000036622.png,experiment,u,q,461.7181577999945
V3,13,23,Female,Right,63,Block 1,1.7307517000008374,0.1,true,firehydrant,firehydrant,occlusion,control,mask,partial viewing,few large,Stimulus\all_stim\occlusion\partialviewing\fewlarge\control\fewlarge_partialViewing_control_firehydrant8.png,mask_img/000000008193.png,experiment,r,r,464.14176289999887
V3,13,23,Female,Right,64,Block 1,1.740824699998484,0.1,true,cat,cat,occlusion,control,mask,partial viewing,many small,Stimulus\all_stim\occlusion\partialviewing\manysmall\control\manysmall_partialViewing_control_cat8.png,mask_img/000000038817.png,experiment,o,o,466.7839620999948
V3,13,23,Female,Right,65,Block 1,1.5389205000028596,0.025,true,cat,cat,occlusion,high,mask,partial viewing,many small,Stimulus\all_stim\occlusion\partialviewing\manysmall\high\manysmall_partialViewing_high_cat10.png,mask_img/000000048929.png,experiment,o,o,469.1020533999981
V3,13,23,Female,Right,66,Block 1,0.9256827999997768,0.05,true,banana,banana,occlusion,control,mask,partial viewing,few large,Stimulus\all_stim\occlusion\partialviewing\fewlarge\control\fewlarge_partialViewing_control_banana5.png,mask_img/000000000459.png,experiment,p,p,470.95822589999443
V3,13,23,Female,Right,67,Block 1,1.210743800002092,0.025,true,firehydrant,firehydrant,occlusion,control,mask,partial viewing,few large,Stimulus\all_stim\occlusion\partialviewing\fewlarge\control\fewlarge_partialViewing_control_firehydrant7.png,mask_img/000000008053.png,experiment,r,r,472.84603680000146
V3,13,23,Female,Right,68,Block 1,1.2720599000022048,0.05,true,bus,bus,occlusion,low,mask,partial viewing,few large,Stimulus\all_stim\occlusion\partialviewing\fewlarge\low\fewlarge_partialViewing_low_bus1.png,mask_img/000000025820.png,experiment,q,q,474.9902729999958
V3,13,23,Female,Right,69,Block 1,1.3321537000010721,0.05,true,building,building,occlusion,low,mask,partial viewing,many small,Stimulus\all_stim\occlusion\partialviewing\manysmall\low\manysmall_partialViewing_low_building5.png,mask_img/000000057930.png,experiment,u,u,477.22232639999856
V3,13,23,Female,Right,70,Block 1,0.9519118000025628,0.025,true,cat,cat,occlusion,control,mask,partial viewing,few large,Stimulus\all_stim\occlusion\partialviewing\fewlarge\control\fewlarge_partialViewing_control_cat9.png,mask_img/000000007558.png,experiment,o,o,479.1018777999998
V3,13,23,Female,Right,71,Block 1,1.4013592000046629,0.1,true,tree,tree,occlusion,low,mask,partial viewing,many small,Stimulus\all_stim\occlusion\partialviewing\manysmall\low\manysmall_partialViewing_low_tree4.png,mask_img/000000063337.png,experiment,e,e,481.1903155999971
V3,13,23,Female,Right,72,Block 1,1.1080883000031463,0.1,true,tree,tree,occlusion,low,mask,partial viewing,many small,Stimulus\all_stim\occlusion\partialviewing\manysmall\low\manysmall_partialViewing_low_tree2.png,mask_img/000000062875.png,experiment,e,e,483.446176999998
V3,13,23,Female,Right,73,Block 1,1.850423600000795,0.1,true,building,building,occlusion,control,mask,partial viewing,many small,Stimulus\all_stim\occlusion\partialviewing\manysmall\control\manysmall_partialViewing_control_building6.png,mask_img/000000036006.png,experiment,u,u,486.206036399999
V3,13,23,Female,Right,74,Block 1,2.3740405999997165,0.025,true,person,person,occlusion,control,mask,partial viewing,many small,Stimulus\all_stim\occlusion\partialviewing\manysmall\control\manysmall_partialViewing_control_person5.png,mask_img/000000040275.png,experiment,w,w,489.27018439999665
V3,13,23,Female,Right,75,Block 1,1.9899327000021003,0.1,true,firehydrant,firehydrant,occlusion,control,mask,partial viewing,few large,Stimulus\all_stim\occlusion\partialviewing\fewlarge\control\fewlarge_partialViewing_control_firehydrant6.png,mask_img/000000008025.png,experiment,r,r,491.9659814999977
V3,13,23,Female,Right,76,Block 1,1.8747736000004807,0.025,true,person,person,occlusion,low,mask,partial viewing,few large,Stimulus\all_stim\occlusion\partialviewing\fewlarge\low\fewlarge_partialViewing_low_person5.png,mask_img/000000029964.png,experiment,w,w,494.6780498999942
V3,13,23,Female,Right,77,Block 1,1.585868299996946,0.05,true,building,building,occlusion,control,mask,partial viewing,few large,Stimulus\all_stim\occlusion\partialviewing\fewlarge\control\fewlarge_partialViewing_control_building10.png,mask_img/000000003225.png,experiment,u,u,497.221816199999
V3,13,23,Female,Right,78,Block 1,1.1567461000013282,0.1,true,tree,tree,occlusion,control,mask,partial viewing,many small,Stimulus\all_stim\occlusion\partialviewing\manysmall\control\manysmall_partialViewing_control_tree1.png,mask_img/000000040886.png,experiment,e,e,499.2860981999984
V3,13,23,Female,Right,79,Block 1,1.1151132999948459,0.025,true,cat,cat,occlusion,control,mask,partial viewing,few large,Stimulus\all_stim\occlusion\partialviewing\fewlarge\control\fewlarge_partialViewing_control_cat1.png,mask_img/000000006437.png,experiment,o,o,501.5420563000007
V3,13,23,Female,Right,80,Block 1,1.5529055000006338,0.025,false,building,bird,occlusion,high,mask,partial viewing,few large,Stimulus\all_stim\occlusion\partialviewing\fewlarge\high\fewlarge_partialViewing_high_building9.png,mask_img/000000015619.png,experiment,i,u,504.1502451999986
V3,13,23,Female,Right,81,Block 1,1.1031791999994311,0.1,true,person,person,occlusion,low,mask,partial viewing,many small,Stimulus\all_stim\occlusion\partialviewing\manysmall\low\manysmall_partialViewing_low_person5.png,mask_img/000000062193.png,experiment,w,w,506.3821444999994
V3,13,23,Female,Right,82,Block 1,1.090081399997871,0.1,true,person,person,occlusion,low,mask,partial viewing,few large,Stimulus\all_stim\occlusion\partialviewing\fewlarge\low\fewlarge_partialViewing_low_person7.png,mask_img/000000030526.png,experiment,w,w,508.4700567999971
V3,13,23,Female,Right,83,Block 1,1.262169100002211,0.1,false,bus,bird,occlusion,high,mask,partial viewing,few large,Stimulus\all_stim\occlusion\partialviewing\fewlarge\high\fewlarge_partialViewing_high_bus5.png,mask_img/000000015986.png,experiment,i,q,510.7901006999964
V3,13,23,Female,Right,84,Block 1,0.8937174000020605,0.025,false,building,bird,occlusion,control,mask,partial viewing,few large,Stimulus\all_stim\occlusion\partialviewing\fewlarge\control\fewlarge_partialViewing_control_building5.png,mask_img/000000004642.png,experiment,i,u,512.6540351000003
V3,13,23,Female,Right,85,Block 1,0.9110168999977759,0.025,true,person,person,occlusion,low,mask,partial viewing,many small,Stimulus\all_stim\occlusion\partialviewing\manysmall\low\manysmall_partialViewing_low_person4.png,mask_img/000000062131.png,experiment,w,w,514.6143003999969
V3,13,23,Female,Right,86,Block 1,0.86913320000167,0.025,true,person,person,occlusion,low,mask,partial viewing,many small,Stimulus\all_stim\occlusion\partialviewing\manysmall\low\manysmall_partialViewing_low_person10.png,mask_img/000000061838.png,experiment,w,w,516.2620215999996
V3,13,23,Female,Right,87,Block 1,1.0322000999949523,0.025,true,cat,cat,occlusion,control,mask,partial viewing,few large,Stimulus\all_stim\occlusion\partialviewing\fewlarge\control\fewlarge_partialViewing_control_cat7.png,mask_img/000000007325.png,experiment,o,o,517.9820790000012
V3,13,23,Female,Right,88,Block 1,1.4000136999966344,0.025,true,bird,bird,occlusion,high,mask,partial viewing,few large,Stimulus\all_stim\occlusion\partialviewing\fewlarge\high\fewlarge_partialViewing_high_bird7.png,mask_img/000000013949.png,experiment,i,i,520.5262682999964
V3,13,23,Female,Right,89,Block 1,1.8052127999981167,0.1,true,building,building,occlusion,control,mask,partial viewing,many small,Stimulus\all_stim\occlusion\partialviewing\manysmall\control\manysmall_partialViewing_control_building4.png,mask_img/000000035985.png,experiment,u,u,523.4300767999957
V3,13,23,Female,Right,90,Block 1,1.4022330999941914,0.1,true,tree,tree,occlusion,high,mask,partial viewing,few large,Stimulus\all_stim\occlusion\partialviewing\fewlarge\high\fewlarge_partialViewing_high_tree9.png,mask_img/000000022440.png,experiment,e,e,525.6460327999957
V3,13,23,Female,Right,91,Block 1,2.465069700003369,0.025,false,building,bird,occlusion,low,mask,partial viewing,few large,Stimulus\all_stim\occlusion\partialviewing\fewlarge\low\fewlarge_partialViewing_low_building2.png,mask_img/000000024702.png,experiment,i,u,529.1020052999957
V3,13,23,Female,Right,92,Block 1,1.8033371999990777,0.1,true,building,building,occlusion,high,mask,partial viewing,many small,Stimulus\all_stim\occlusion\partialviewing\manysmall\high\manysmall_partialViewing_high_building9.png,mask_img/000000046345.png,experiment,u,u,531.9260969999959
V3,13,23,Female,Right,93,Block 1,1.4379048999981023,0.05,true,tree,tree,occlusion,high,mask,partial viewing,few large,Stimulus\all_stim\occlusion\partialviewing\fewlarge\high\fewlarge_partialViewing_high_tree3.png,mask_img/000000021942.png,experiment,e,e,534.3497104999988
V3,13,23,Female,Right,94,Block 1,1.9869961000003968,0.1,false,banana,tree,occlusion,high,mask,partial viewing,many small,Stimulus\all_stim\occlusion\partialviewing\manysmall\high\manysmall_partialViewing_high_banana6.png,mask_img/000000042704.png,experiment,e,p,537.2381454999995
V3,13,23,Female,Right,95,Block 1,1.0046026999989408,0.1,true,bus,bus,occlusion,control,mask,partial viewing,many small,Stimulus\all_stim\occlusion\partialviewing\manysmall\control\manysmall_partialViewing_control_bus8.png,mask_img/000000037782.png,experiment,q,q,539.0620024999953
V3,13,23,Female,Right,96,Block 1,1.1119485999952303,0.025,true,building,building,occlusion,high,mask,partial viewing,many small,Stimulus\all_stim\occlusion\partialviewing\manysmall\high\manysmall_partialViewing_high_building1.png,mask_img/000000044950.png,experiment,u,u,541.3096889000008
V3,13,23,Female,Right,97,Block 1,0.9011810000010883,0.05,true,bus,bus,occlusion,control,mask,partial viewing,many small,Stimulus\all_stim\occlusion\partialviewing\manysmall\control\manysmall_partialViewing_control_bus6.png,mask_img/000000037174.png,experiment,q,q,543.3340074000007
V3,13,23,Female,Right,98,Block 1,0.9514788999949815,0.025,true,bus,bus,occlusion,low,mask,partial viewing,few large,Stimulus\all_stim\occlusion\partialviewing\fewlarge\low\fewlarge_partialViewing_low_bus6.png,mask_img/000000026503.png,experiment,q,q,545.4140606000001
V3,13,23,Female,Right,99,Block 1,1.3795128999990993,0.025,true,building,building,occlusion,low,mask,partial viewing,many small,Stimulus\all_stim\occlusion\partialviewing\manysmall\low\manysmall_partialViewing_low_building4.png,mask_img/000000057782.png,experiment,u,u,547.8541574999981
V3,13,23,Female,Right,100,Block 1,1.1438574999992852,0.025,true,firehydrant,firehydrant,occlusion,control,mask,partial viewing,few large,Stimulus\all_stim\occlusion\partialviewing\fewlarge\control\fewlarge_partialViewing_control_firehydrant2.png,mask_img/000000007934.png,experiment,r,r,549.8222008000012
V3,13,23,Female,Right,101,Block 1,0.6983163999975659,0.1,true,firehydrant,firehydrant,occlusion,high,mask,partial viewing,few large,Stimulus\all_stim\occlusion\partialviewing\fewlarge\high\fewlarge_partialViewing_high_firehydrant7.png,mask_img/000000019463.png,experiment,r,r,551.3992837999976
V3,13,23,Female,Right,102,Block 1,0.9978975000049104,0.05,true,building,building,occlusion,high,mask,partial viewing,few large,Stimulus\all_stim\occlusion\partialviewing\fewlarge\high\fewlarge_partialViewing_high_building8.png,mask_img/000000015366.png,experiment,u,u,553.5499859999982
V3,13,23,Female,Right,103,Block 1,0.9166167000003043,0.1,true,banana,banana,occlusion,control,mask,partial viewing,many small,Stimulus\all_stim\occlusion\partialviewing\manysmall\control\manysmall_partialViewing_control_banana8.png,mask_img/000000033904.png,experiment,p,p,555.3581702999945
V3,13,23,Female,Right,104,Block 1,1.4265863000036916,0.05,true,firehydrant,firehydrant,occlusion,low,mask,partial viewing,few large,Stimulus\all_stim\occlusion\partialviewing\fewlarge\low\fewlarge_partialViewing_low_firehydrant6.png,mask_img/000000028842.png,experiment,r,r,557.5580285999968
V3,13,23,Female,Right,105,Block 1,0.9433293999973102,0.1,true,firehydrant,firehydrant,occlusion,high,mask,partial viewing,few large,Stimulus\all_stim\occlusion\partialviewing\fewlarge\high\fewlarge_partialViewing_high_firehydrant8.png,mask_img/000000019528.png,experiment,r,r,559.591886299997
V3,13,23,Female,Right,106,Block 1,1.2343926999965333,0.1,true,bird,bird,occlusion,high,mask,partial viewing,few large,Stimulus\all_stim\occlusion\partialviewing\fewlarge\high\fewlarge_partialViewing_high_bird2.png,mask_img/000000013169.png,experiment,i,i,561.8460970000015
V3,13,23,Female,Right,107,Block 1,1.3244071000008262,0.025,false,cat,tree,occlusion,high,mask,partial viewing,many small,Stimulus\all_stim\occlusion\partialviewing\manysmall\high\manysmall_partialViewing_high_cat7.png,mask_img/000000049602.png,experiment,e,o,564.0720208999992
V3,13,23,Female,Right,108,Block 1,0.788520599999174,0.025,true,person,person,occlusion,control,mask,partial viewing,few large,Stimulus\all_stim\occlusion\partialviewing\fewlarge\control\fewlarge_partialViewing_control_person9.png,mask_img/000000009809.png,experiment,w,w,565.9256290999983
V3,13,23,Female,Right,109,Block 1,1.8777324999973644,0.025,true,building,building,occlusion,high,mask,partial viewing,many small,Stimulus\all_stim\occlusion\partialviewing\manysmall\high\manysmall_partialViewing_high_building8.png,mask_img/000000046245.png,experiment,u,u,568.7980982000008
V3,13,23,Female,Right,110,Block 1,1.2981022000021767,0.05,true,bird,bird,occlusion,high,mask,partial viewing,few large,Stimulus\all_stim\occlusion\partialviewing\fewlarge\high\fewlarge_partialViewing_high_bird1.png,mask_img/000000013061.png,experiment,i,i,571.0779851999978
V3,13,23,Female,Right,111,Block 1,1.0181513999996241,0.1,true,tree,tree,occlusion,high,mask,partial viewing,few large,Stimulus\all_stim\occlusion\partialviewing\fewlarge\high\fewlarge_partialViewing_high_tree5.png,mask_img/000000022102.png,experiment,e,e,572.9018904999975
V3,13,23,Female,Right,112,Block 1,1.6683826000007684,0.05,true,building,building,occlusion,low,mask,partial viewing,few large,Stimulus\all_stim\occlusion\partialviewing\fewlarge\low\fewlarge_partialViewing_low_building9.png,mask_img/000000025516.png,experiment,u,u,575.5502830999976
V3,13,23,Female,Right,113,Block 1,1.2776382000010926,0.05,true,person,person,occlusion,low,mask,partial viewing,few large,Stimulus\all_stim\occlusion\partialviewing\fewlarge\low\fewlarge_partialViewing_low_person2.png,mask_img/000000029274.png,experiment,w,w,577.910072300001
V3,13,23,Female,Right,114,Block 1,1.2206003999963286,0.05,true,tree,tree,occlusion,control,mask,partial viewing,few large,Stimulus\all_stim\occlusion\partialviewing\fewlarge\control\fewlarge_partialViewing_control_tree9.png,mask_img/000000011701.png,experiment,e,e,580.2940220999953
V3,13,23,Female,Right,115,Block 1,1.3548892999970121,0.05,true,bird,bird,occlusion,control,mask,partial viewing,many small,Stimulus\all_stim\occlusion\partialviewing\manysmall\control\manysmall_partialViewing_control_bird3.png,mask_img/000000034570.png,experiment,i,i,582.7178017999977
V3,13,23,Female,Right,116,Block 1,1.2043860999983735,0.1,true,person,person,occlusion,control,mask,partial viewing,many small,Stimulus\all_stim\occlusion\partialviewing\manysmall\control\manysmall_partialViewing_control_person5.png,mask_img/000000040275.png,experiment,w,w,585.038083899999
V3,13,23,Female,Right,117,Block 1,1.0073176000005333,0.025,false,bird,person,occlusion,low,mask,partial viewing,few large,Stimulus\all_stim\occlusion\partialviewing\fewlarge\low\fewlarge_partialViewing_low_bird4.png,mask_img/000000024193.png,experiment,w,i,586.886070499997
V3,13,23,Female,Right,118,Block 1,1.7243085999944014,0.025,false,cat,bird,occlusion,high,mask,partial viewing,few large,Stimulus\all_stim\occlusion\partialviewing\fewlarge\high\fewlarge_partialViewing_high_cat6.png,mask_img/000000017476.png,experiment,i,o,589.4936754000009
V3,13,23,Female,Right,119,Block 1,1.7429629000034765,0.025,false,firehydrant,tree,occlusion,control,mask,partial viewing,few large,Stimulus\all_stim\occlusion\partialviewing\fewlarge\control\fewlarge_partialViewing_control_firehydrant9.png,mask_img/000000008329.png,experiment,e,r,591.9824194999965
V3,13,23,Female,Right,120,Block 1,1.1563397999998415,0.025,true,cat,cat,occlusion,control,mask,partial viewing,few large,Stimulus\all_stim\occlusion\partialviewing\fewlarge\control\fewlarge_partialViewing_control_cat2.png,mask_img/000000006489.png,experiment,o,o,594.0143843999977
V3,13,23,Female,Right,121,Block 1,1.2138965999984066,0.05,false,bird,cat,occlusion,high,mask,partial viewing,many small,Stimulus\all_stim\occlusion\partialviewing\manysmall\high\manysmall_partialViewing_high_bird4.png,mask_img/000000044136.png,experiment,o,i,595.8858903
V3,13,23,Female,Right,122,Block 1,1.356943399994634,0.025,true,bus,bus,occlusion,high,mask,partial viewing,few large,Stimulus\all_stim\occlusion\partialviewing\fewlarge\high\fewlarge_partialViewing_high_bus10.png,mask_img/000000015733.png,experiment,q,q,598.182060399995
V3,13,23,Female,Right,123,Block 1,0.9857918999987305,0.1,true,building,building,occlusion,control,mask,partial viewing,many small,Stimulus\all_stim\occlusion\partialviewing\manysmall\control\manysmall_partialViewing_control_building2.png,mask_img/000000035864.png,experiment,u,u,600.1497791000002
V3,13,23,Female,Right,124,Block 1,1.2544414000003599,0.1,true,cat,cat,occlusion,low,mask,partial viewing,many small,Stimulus\all_stim\occlusion\partialviewing\manysmall\low\manysmall_partialViewing_low_cat3.png,mask_img/000000059442.png,experiment,o,o,602.3420673
V3,13,23,Female,Right,125,Block 1,1.8365730999939842,0.1,true,firehydrant,firehydrant,occlusion,control,mask,partial viewing,few large,Stimulus\all_stim\occlusion\partialviewing\fewlarge\control\fewlarge_partialViewing_control_firehydrant9.png,mask_img/000000008329.png,experiment,r,r,604.9900807999948
V3,13,23,Female,Right,126,Block 1,1.5560968999998295,0.05,true,cat,cat,occlusion,high,mask,partial viewing,many small,Stimulus\all_stim\occlusion\partialviewing\manysmall\high\manysmall_partialViewing_high_cat5.png,mask_img/000000049428.png,experiment,o,o,607.3260265999998
V3,13,23,Female,Right,127,Block 1,1.415692399998079,0.1,false,firehydrant,tree,occlusion,high,mask,partial viewing,many small,Stimulus\all_stim\occlusion\partialviewing\manysmall\high\manysmall_partialViewing_high_firehydrant1.png,mask_img/000000049987.png,experiment,e,r,609.7178267999989
V3,13,23,Female,Right,128,Block 1,1.2452661000061198,0.025,false,banana,tree,occlusion,low,mask,partial viewing,many small,Stimulus\all_stim\occlusion\partialviewing\manysmall\low\manysmall_partialViewing_low_banana6.png,mask_img/000000055460.png,experiment,e,p,611.8142380999998
V3,13,23,Female,Right,129,Block 1,1.3195724000033806,0.05,true,cat,cat,occlusion,low,mask,partial viewing,many small,Stimulus\all_stim\occlusion\partialviewing\manysmall\low\manysmall_partialViewing_low_cat1.png,mask_img/000000059036.png,experiment,o,o,613.8218779999952
V3,13,23,Female,Right,130,Block 1,1.1681743999943137,0.05,false,tree,person,occlusion,low,mask,partial viewing,many small,Stimulus\all_stim\occlusion\partialviewing\manysmall\low\manysmall_partialViewing_low_tree7.png,mask_img/000000063754.png,experiment,w,e,616.0937873000003
V3,13,23,Female,Right,131,Block 1,1.120611899998039,0.025,true,cat,cat,occlusion,high,mask,partial viewing,many small,Stimulus\all_stim\occlusion\partialviewing\manysmall\high\manysmall_partialViewing_high_cat4.png,mask_img/000000049331.png,experiment,o,o,617.9899394999957
V3,13,23,Female,Right,132,Block 1,0.9250605999986874,0.05,true,person,person,occlusion,control,mask,partial viewing,many small,Stimulus\all_stim\occlusion\partialviewing\manysmall\control\manysmall_partialViewing_control_person6.png,mask_img/000000040325.png,experiment,w,w,620.0298743999956
V3,13,23,Female,Right,133,Block 1,2.0746836999969673,0.1,false,building,bus,occlusion,high,mask,partial viewing,few large,Stimulus\all_stim\occlusion\partialviewing\fewlarge\high\fewlarge_partialViewing_high_building4.png,mask_img/000000014592.png,experiment,q,u,623.0064185999945
V3,13,23,Female,Right,134,Block 1,1.3716554999991786,0.1,true,tree,tree,occlusion,control,mask,partial viewing,many small,Stimulus\all_stim\occlusion\partialviewing\manysmall\control\manysmall_partialViewing_control_tree3.png,mask_img/000000041014.png,experiment,e,e,625.5259439000001
V3,13,23,Female,Right,135,Block 1,1.0999179999998887,0.025,true,cat,cat,occlusion,low,mask,partial viewing,many small,Stimulus\all_stim\occlusion\partialviewing\manysmall\low\manysmall_partialViewing_low_cat3.png,mask_img/000000059442.png,experiment,o,o,627.6699755999944
V3,13,23,Female,Right,136,Block 1,0.9126636000000872,0.05,true,cat,cat,occlusion,high,mask,partial viewing,few large,Stimulus\all_stim\occlusion\partialviewing\fewlarge\high\fewlarge_partialViewing_high_cat1.png,mask_img/000000017183.png,experiment,o,o,629.5340170999989
V3,13,23,Female,Right,137,Block 1,1.4723331999994116,0.05,true,tree,tree,occlusion,low,mask,partial viewing,few large,Stimulus\all_stim\occlusion\partialviewing\fewlarge\low\fewlarge_partialViewing_low_tree1.png,mask_img/000000031053.png,experiment,e,e,632.0855615999972
V3,13,23,Female,Right,138,Block 1,1.1169965000008233,0.025,false,firehydrant,tree,occlusion,high,mask,partial viewing,many small,Stimulus\all_stim\occlusion\partialviewing\manysmall\high\manysmall_partialViewing_high_firehydrant7.png,mask_img/000000050790.png,experiment,e,r,634.0377971999987
V3,13,23,Female,Right,139,Block 1,1.5662114000006113,0.1,false,banana,cat,occlusion,high,mask,partial viewing,many small,Stimulus\all_stim\occlusion\partialviewing\manysmall\high\manysmall_partialViewing_high_banana10.png,mask_img/000000042196.png,experiment,o,p,636.6938279999958
V3,13,23,Female,Right,140,Block 1,1.0455561999988277,0.1,true,banana,banana,occlusion,low,mask,partial viewing,few large,Stimulus\all_stim\occlusion\partialviewing\fewlarge\low\fewlarge_partialViewing_low_banana8.png,mask_img/000000023656.png,experiment,p,p,638.7820876999976
V3,13,23,Female,Right,141,Block 1,2.0516348000019207,0.05,false,firehydrant,tree,occlusion,control,mask,partial viewing,many small,Stimulus\all_stim\occlusion\partialviewing\manysmall\control\manysmall_partialViewing_control_firehydrant9.png,mask_img/000000039643.png,experiment,e,r,641.7177088999961
V3,13,23,Female,Right,142,Block 1,0.8647037000046112,0.1,true,banana,banana,occlusion,low,mask,partial viewing,many small,Stimulus\all_stim\occlusion\partialviewing\manysmall\low\manysmall_partialViewing_low_banana10.png,mask_img/000000054723.png,experiment,p,p,643.5980383999995
V3,13,23,Female,Right,143,Block 1,1.2107307000042056,0.05,true,building,building,occlusion,high,mask,partial viewing,few large,Stimulus\all_stim\occlusion\partialviewing\fewlarge\high\fewlarge_partialViewing_high_building7.png,mask_img/000000015155.png,experiment,u,u,645.7178151999979
V3,13,23,Female,Right,144,Block 1,1.3230677000028663,0.1,true,tree,tree,occlusion,low,mask,partial viewing,many small,Stimulus\all_stim\occlusion\partialviewing\manysmall\low\manysmall_partialViewing_low_tree5.png,mask_img/000000063482.png,experiment,e,e,651.2378581000012
V3,13,23,Female,Right,145,Block 2,1.0168840999976965,0.05,false,person,tree,occlusion,low,mask,partial viewing,many small,Stimulus\all_stim\occlusion\partialviewing\manysmall\low\manysmall_partialViewing_low_person3.png,mask_img/000000062128.png,experiment,e,w,653.3099808999978
V3,13,23,Female,Right,146,Block 2,1.6624755000011646,0.025,true,banana,banana,occlusion,high,mask,partial viewing,many small,Stimulus\all_stim\occlusion\partialviewing\manysmall\high\manysmall_partialViewing_high_banana1.png,mask_img/000000041962.png,experiment,p,p,656.0061539999951
V3,13,23,Female,Right,147,Block 2,0.9909923000013805,0.025,false,person,banana,occlusion,high,mask,partial viewing,many small,Stimulus\all_stim\occlusion\partialviewing\manysmall\high\manysmall_partialViewing_high_person6.png,mask_img/000000052426.png,experiment,p,w,658.150028600001
V3,13,23,Female,Right,148,Block 2,0.7620667999944999,0.025,true,banana,banana,occlusion,control,mask,partial viewing,few large,Stimulus\all_stim\occlusion\partialviewing\fewlarge\control\fewlarge_partialViewing_control_banana9.png,mask_img/000000000731.png,experiment,p,p,659.6557025000002
V3,13,23,Female,Right,149,Block 2,0.7365148000026238,0.1,true,banana,banana,occlusion,control,mask,partial viewing,few large,Stimulus\all_stim\occlusion\partialviewing\fewlarge\control\fewlarge_partialViewing_control_banana7.png,mask_img/000000000626.png,experiment,p,p,661.5659375999967
V3,13,23,Female,Right,150,Block 2,0.8653514000034193,0.05,true,cat,cat,occlusion,control,mask,partial viewing,few large,Stimulus\all_stim\occlusion\partialviewing\fewlarge\control\fewlarge_partialViewing_control_cat5.png,mask_img/000000006870.png,experiment,o,o,663.2219621999975
V3,13,23,Female,Right,151,Block 2,1.131115399999544,0.025,true,building,building,occlusion,high,mask,partial viewing,few large,Stimulus\all_stim\occlusion\partialviewing\fewlarge\high\fewlarge_partialViewing_high_building1.png,mask_img/000000014335.png,experiment,u,u,665.3501322000011
V3,13,23,Female,Right,152,Block 2,1.2395658000023104,0.05,true,tree,tree,occlusion,control,mask,partial viewing,many small,Stimulus\all_stim\occlusion\partialviewing\manysmall\control\manysmall_partialViewing_control_tree5.png,mask_img/000000041174.png,experiment,e,e,667.5197168999948
V3,13,23,Female,Right,153,Block 2,1.0624043999996502,0.1,true,cat,cat,occlusion,low,mask,partial viewing,few large,Stimulus\all_stim\occlusion\partialviewing\fewlarge\low\fewlarge_partialViewing_low_cat10.png,mask_img/000000027319.png,experiment,o,o,669.485809699996
V3,13,23,Female,Right,154,Block 2,1.0455482000033953,0.1,false,tree,bird,occlusion,low,mask,partial viewing,many small,Stimulus\all_stim\occlusion\partialviewing\manysmall\low\manysmall_partialViewing_low_tree10.png,mask_img/000000062716.png,experiment,i,e,671.5097437000004
V3,13,23,Female,Right,155,Block 2,1.1453856000007363,0.1,true,bus,bus,occlusion,control,mask,partial viewing,many small,Stimulus\all_stim\occlusion\partialviewing\manysmall\control\manysmall_partialViewing_control_bus7.png,mask_img/000000037339.png,experiment,q,q,673.5579972999985
V3,13,23,Female,Right,156,Block 2,1.0907608999987133,0.05,true,cat,cat,occlusion,control,mask,partial viewing,many small,Stimulus\all_stim\occlusion\partialviewing\manysmall\control\manysmall_partialViewing_control_cat7.png,mask_img/000000038798.png,experiment,o,o,675.4217786999943
V3,13,23,Female,Right,157,Block 2,0.9978062999944086,0.025,true,bus,bus,occlusion,low,mask,partial viewing,few large,Stimulus\all_stim\occlusion\partialviewing\fewlarge\low\fewlarge_partialViewing_low_bus4.png,mask_img/000000026053.png,experiment,q,q,677.3500333999982
V3,13,23,Female,Right,158,Block 2,0.8580130999980611,0.1,true,banana,banana,occlusion,high,mask,partial viewing,few large,Stimulus\all_stim\occlusion\partialviewing\fewlarge\high\fewlarge_partialViewing_high_banana10.png,mask_img/000000012178.png,experiment,p,p,679.1656375999955
V3,13,23,Female,Right,159,Block 2,1.2560595999966608,0.025,true,person,person,occlusion,high,mask,partial viewing,many small,Stimulus\all_stim\occlusion\partialviewing\manysmall\high\manysmall_partialViewing_high_person3.png,mask_img/000000051880.png,experiment,w,w,681.1179453000004
V3,13,23,Female,Right,160,Block 2,0.8065612999998848,0.05,true,bus,bus,occlusion,control,mask,partial viewing,few large,Stimulus\all_stim\occlusion\partialviewing\fewlarge\control\fewlarge_partialViewing_control_bus6.png,mask_img/000000005862.png,experiment,q,q,682.7822967999964
V3,13,23,Female,Right,161,Block 2,1.1489177999974345,0.05,true,building,building,occlusion,low,mask,partial viewing,few large,Stimulus\all_stim\occlusion\partialviewing\fewlarge\low\fewlarge_partialViewing_low_building6.png,mask_img/000000025143.png,experiment,u,u,684.7418498999978
V3,13,23,Female,Right,162,Block 2,1.4566558000005898,0.025,true,tree,tree,occlusion,control,mask,partial viewing,many small,Stimulus\all_stim\occlusion\partialviewing\manysmall\control\manysmall_partialViewing_control_tree10.png,mask_img/000000040948.png,experiment,e,e,687.1979817999963
V3,13,23,Female,Right,163,Block 2,1.1581962999989628,0.025,true,bird,bird,occlusion,low,mask,partial viewing,many small,Stimulus\all_stim\occlusion\partialviewing\manysmall\low\manysmall_partialViewing_low_bird6.png,mask_img/000000056007.png,experiment,i,i,689.2538398999968
V3,13,23,Female,Right,164,Block 2,1.5247514000002411,0.025,true,tree,tree,occlusion,control,mask,partial viewing,many small,Stimulus\all_stim\occlusion\partialviewing\manysmall\control\manysmall_partialViewing_control_tree8.png,mask_img/000000041577.png,experiment,e,e,691.8469931
V3,13,23,Female,Right,165,Block 2,1.3590380000023288,0.1,false,firehydrant,tree,occlusion,control,mask,partial viewing,many small,Stimulus\all_stim\occlusion\partialviewing\manysmall\control\manysmall_partialViewing_control_firehydrant1.png,mask_img/000000039012.png,experiment,e,r,694.3340838000004
V3,13,23,Female,Right,166,Block 2,0.7998442000025534,0.025,false,firehydrant,tree,occlusion,high,mask,partial viewing,few large,Stimulus\all_stim\occlusion\partialviewing\fewlarge\high\fewlarge_partialViewing_high_firehydrant10.png,mask_img/000000018441.png,experiment,e,r,695.9260073999976
V3,13,23,Female,Right,167,Block 2,0.8233206000004429,0.1,true,banana,banana,occlusion,high,mask,partial viewing,many small,Stimulus\all_stim\occlusion\partialviewing\manysmall\high\manysmall_partialViewing_high_banana3.png,mask_img/000000042476.png,experiment,p,p,697.4699914000012
V3,13,23,Female,Right,168,Block 2,0.8608558999985689,0.025,false,firehydrant,tree,occlusion,low,mask,partial viewing,few large,Stimulus\all_stim\occlusion\partialviewing\fewlarge\low\fewlarge_partialViewing_low_firehydrant1.png,mask_img/000000028304.png,experiment,e,r,699.1099246000012
V3,13,23,Female,Right,169,Block 2,0.9405550000010408,0.1,false,firehydrant,tree,occlusion,low,mask,partial viewing,few large,Stimulus\all_stim\occlusion\partialviewing\fewlarge\low\fewlarge_partialViewing_low_firehydrant8.png,mask_img/000000028988.png,experiment,e,r,700.7985607999944
V3,13,23,Female,Right,170,Block 2,0.9354118000046583,0.05,false,bird,banana,occlusion,high,mask,partial viewing,few large,Stimulus\all_stim\occlusion\partialviewing\fewlarge\high\fewlarge_partialViewing_high_bird3.png,mask_img/000000013455.png,experiment,p,i,702.709764399995
V3,13,23,Female,Right,171,Block 2,0.8732922999988659,0.1,false,firehydrant,tree,occlusion,low,mask,partial viewing,many small,Stimulus\all_stim\occlusion\partialviewing\manysmall\low\manysmall_partialViewing_low_firehydrant6.png,mask_img/000000060647.png,experiment,e,r,704.4954375999951
V3,13,23,Female,Right,172,Block 2,1.1552819999997155,0.025,true,bus,bus,occlusion,control,mask,partial viewing,many small,Stimulus\all_stim\occlusion\partialviewing\manysmall\control\manysmall_partialViewing_control_bus4.png,mask_img/000000036966.png,experiment,q,q,706.7423692000011
V3,13,23,Female,Right,173,Block 2,1.0409354000003077,0.1,true,bird,bird,occlusion,high,mask,partial viewing,few large,Stimulus\all_stim\occlusion\partialviewing\fewlarge\high\fewlarge_partialViewing_high_bird6.png,mask_img/000000013944.png,experiment,i,i,708.8617932999987
V3,13,23,Female,Right,174,Block 2,0.808017800001835,0.05,true,banana,banana,occlusion,high,mask,partial viewing,few large,Stimulus\all_stim\occlusion\partialviewing\fewlarge\high\fewlarge_partialViewing_high_banana7.png,mask_img/000000012567.png,experiment,p,p,710.7818722000011
V3,13,23,Female,Right,175,Block 2,1.4603766000000178,0.1,false,person,cat,occlusion,low,mask,partial viewing,many small,Stimulus\all_stim\occlusion\partialviewing\manysmall\low\manysmall_partialViewing_low_person8.png,mask_img/000000062420.png,experiment,o,w,713.1177959999986
V3,13,23,Female,Right,176,Block 2,0.8123695000031148,0.05,true,person,person,occlusion,control,mask,partial viewing,many small,Stimulus\all_stim\occlusion\partialviewing\manysmall\control\manysmall_partialViewing_control_person9.png,mask_img/000000040771.png,experiment,w,w,714.7898021000001
V3,13,23,Female,Right,177,Block 2,0.8628067999961786,0.025,true,building,building,occlusion,high,mask,partial viewing,many small,Stimulus\all_stim\occlusion\partialviewing\manysmall\high\manysmall_partialViewing_high_building9.png,mask_img/000000046345.png,experiment,u,u,716.6057661999948
V3,13,23,Female,Right,178,Block 2,0.811100400002033,0.025,true,banana,banana,occlusion,control,mask,partial viewing,many small,Stimulus\all_stim\occlusion\partialviewing\manysmall\control\manysmall_partialViewing_control_banana8.png,mask_img/000000033904.png,experiment,p,p,718.2456874999989
V3,13,23,Female,Right,179,Block 2,1.0539077000066754,0.025,true,tree,tree,occlusion,low,mask,partial viewing,many small,Stimulus\all_stim\occlusion\partialviewing\manysmall\low\manysmall_partialViewing_low_tree6.png,mask_img/000000063715.png,experiment,e,e,720.0378701000009
V3,13,23,Female,Right,180,Block 2,1.7375936000025831,0.05,false,banana,cat,occlusion,high,mask,partial viewing,many small,Stimulus\all_stim\occlusion\partialviewing\manysmall\high\manysmall_partialViewing_high_banana4.png,mask_img/000000042499.png,experiment,o,p,722.8216023999994
V3,13,23,Female,Right,181,Block 2,0.6821494999967399,0.05,true,banana,banana,occlusion,control,mask,partial viewing,few large,Stimulus\all_stim\occlusion\partialviewing\fewlarge\control\fewlarge_partialViewing_control_banana8.png,mask_img/000000000690.png,experiment,p,p,724.3098821999956
V3,13,23,Female,Right,182,Block 2,1.3752805999974953,0.05,true,tree,tree,occlusion,high,mask,partial viewing,few large,Stimulus\all_stim\occlusion\partialviewing\fewlarge\high\fewlarge_partialViewing_high_tree8.png,mask_img/000000022355.png,experiment,e,e,726.5339125999963
V3,13,23,Female,Right,183,Block 2,1.1641854000044987,0.05,true,bird,bird,occlusion,control,mask,partial viewing,few large,Stimulus\all_stim\occlusion\partialviewing\fewlarge\control\fewlarge_partialViewing_control_bird4.png,mask_img/000000001997.png,experiment,i,i,728.8219229999959
V3,13,23,Female,Right,184,Block 2,1.5968789999969886,0.1,true,bus,bus,occlusion,low,mask,partial viewing,many small,Stimulus\all_stim\occlusion\partialviewing\manysmall\low\manysmall_partialViewing_low_bus4.png,mask_img/000000058701.png,experiment,q,q,731.2057149999964
V3,13,23,Female,Right,185,Block 2,1.0697795000014594,0.05,true,tree,tree,occlusion,high,mask,partial viewing,few large,Stimulus\all_stim\occlusion\partialviewing\fewlarge\high\fewlarge_partialViewing_high_tree5.png,mask_img/000000022102.png,experiment,e,e,733.2539509999988
V3,13,23,Female,Right,186,Block 2,1.1367857000004733,0.05,false,bird,banana,occlusion,high,mask,partial viewing,many small,Stimulus\all_stim\occlusion\partialviewing\manysmall\high\manysmall_partialViewing_high_bird3.png,mask_img/000000044123.png,experiment,p,i,735.3182670999959
V3,13,23,Female,Right,187,Block 2,1.1205693000010797,0.025,true,building,building,occlusion,low,mask,partial viewing,few large,Stimulus\all_stim\occlusion\partialviewing\fewlarge\low\fewlarge_partialViewing_low_building4.png,mask_img/000000024912.png,experiment,u,u,737.3838546999978
V3,13,23,Female,Right,188,Block 2,0.9844647999998415,0.025,true,banana,banana,occlusion,low,mask,partial viewing,many small,Stimulus\all_stim\occlusion\partialviewing\manysmall\low\manysmall_partialViewing_low_banana2.png,mask_img/000000054759.png,experiment,p,p,739.4057592999961
V3,13,23,Female,Right,189,Block 2,1.1358218999957899,0.05,true,tree,tree,occlusion,control,mask,partial viewing,many small,Stimulus\all_stim\occlusion\partialviewing\manysmall\control\manysmall_partialViewing_control_tree4.png,mask_img/000000041022.png,experiment,e,e,741.3179316999958
V3,13,23,Female,Right,190,Block 2,0.8655518000014126,0.1,true,tree,tree,occlusion,low,mask,partial viewing,few large,Stimulus\all_stim\occlusion\partialviewing\fewlarge\low\fewlarge_partialViewing_low_tree10.png,mask_img/000000031454.png,experiment,e,e,742.8938530000014
V3,13,23,Female,Right,191,Block 2,1.4372426999980235,0.025,true,banana,banana,occlusion,control,mask,partial viewing,few large,Stimulus\all_stim\occlusion\partialviewing\fewlarge\control\fewlarge_partialViewing_control_banana6.png,mask_img/000000000595.png,experiment,p,p,745.0620707999988
V3,13,23,Female,Right,192,Block 2,1.262261000003491,0.025,true,firehydrant,firehydrant,occlusion,low,mask,partial viewing,many small,Stimulus\all_stim\occlusion\partialviewing\manysmall\low\manysmall_partialViewing_low_firehydrant7.png,mask_img/000000061084.png,experiment,r,r,747.4459071999954
V3,13,23,Female,Right,193,Block 2,1.1647338000038872,0.1,false,bus,building,occlusion,high,mask,partial viewing,many small,Stimulus\all_stim\occlusion\partialviewing\manysmall\high\manysmall_partialViewing_high_bus7.png,mask_img/000000047471.png,experiment,u,q,749.5339420999953
V3,13,23,Female,Right,194,Block 2,0.8459373000005144,0.025,true,bus,bus,occlusion,low,mask,partial viewing,few large,Stimulus\all_stim\occlusion\partialviewing\fewlarge\low\fewlarge_partialViewing_low_bus3.png,mask_img/000000025997.png,experiment,q,q,751.4462478999994
V3,13,23,Female,Right,195,Block 2,0.8399702000024263,0.025,true,person,person,occlusion,high,mask,partial viewing,few large,Stimulus\all_stim\occlusion\partialviewing\fewlarge\high\fewlarge_partialViewing_high_person9.png,mask_img/000000021003.png,experiment,w,w,753.141887400001
V3,13,23,Female,Right,196,Block 2,0.940717700003006,0.05,true,tree,tree,occlusion,low,mask,partial viewing,few large,Stimulus\all_stim\occlusion\partialviewing\fewlarge\low\fewlarge_partialViewing_low_tree2.png,mask_img/000000031601.png,experiment,e,e,754.9432474999994
V3,13,23,Female,Right,197,Block 2,0.8913641999970423,0.05,true,bus,bus,occlusion,high,mask,partial viewing,many small,Stimulus\all_stim\occlusion\partialviewing\manysmall\high\manysmall_partialViewing_high_bus1.png,mask_img/000000046676.png,experiment,q,q,756.8296649999975
V3,13,23,Female,Right,198,Block 2,1.6766466999979457,0.05,false,banana,tree,occlusion,low,mask,partial viewing,many small,Stimulus\all_stim\occlusion\partialviewing\manysmall\low\manysmall_partialViewing_low_banana9.png,mask_img/000000055652.png,experiment,e,p,759.2859356999979
V3,13,23,Female,Right,199,Block 2,1.6162554000038654,0.025,true,building,building,occlusion,low,mask,partial viewing,many small,Stimulus\all_stim\occlusion\partialviewing\manysmall\low\manysmall_partialViewing_low_building8.png,mask_img/000000058073.png,experiment,u,u,761.6138882999949
V3,13,23,Female,Right,200,Block 2,1.306190900002548,0.025,true,bird,bird,occlusion,high,mask,partial viewing,few large,Stimulus\all_stim\occlusion\partialviewing\fewlarge\high\fewlarge_partialViewing_high_bird6.png,mask_img/000000013944.png,experiment,i,i,763.6297838999963
V3,13,23,Female,Right,201,Block 2,1.0035295999987284,0.025,true,tree,tree,occlusion,low,mask,partial viewing,few large,Stimulus\all_stim\occlusion\partialviewing\fewlarge\low\fewlarge_partialViewing_low_tree7.png,mask_img/000000032906.png,experiment,e,e,765.405958299998
V3,13,23,Female,Right,202,Block 2,1.0089562000066508,0.05,true,firehydrant,firehydrant,occlusion,high,mask,partial viewing,many small,Stimulus\all_stim\occlusion\partialviewing\manysmall\high\manysmall_partialViewing_high_firehydrant2.png,mask_img/000000050239.png,experiment,r,r,767.373758099995
V3,13,23,Female,Right,203,Block 2,1.116269199999806,0.1,true,building,building,occlusion,control,mask,partial viewing,many small,Stimulus\all_stim\occlusion\partialviewing\manysmall\control\manysmall_partialViewing_control_building1.png,mask_img/000000035818.png,experiment,u,u,769.3982249999972
V3,13,23,Female,Right,204,Block 2,0.8204134999978123,0.025,true,banana,banana,occlusion,low,mask,partial viewing,many small,Stimulus\all_stim\occlusion\partialviewing\manysmall\low\manysmall_partialViewing_low_banana5.png,mask_img/000000055388.png,experiment,p,p,771.2620734000011
V3,13,23,Female,Right,205,Block 2,1.1401493000012124,0.05,true,building,building,occlusion,low,mask,partial viewing,few large,Stimulus\all_stim\occlusion\partialviewing\fewlarge\low\fewlarge_partialViewing_low_building4.png,mask_img/000000024912.png,experiment,u,u,773.1897048999963
V3,13,23,Female,Right,206,Block 2,1.4727290000009816,0.05,true,tree,tree,occlusion,low,mask,partial viewing,few large,Stimulus\all_stim\occlusion\partialviewing\fewlarge\low\fewlarge_partialViewing_low_tree9.png,mask_img/000000032965.png,experiment,e,e,775.5417629000003
V3,13,23,Female,Right,207,Block 2,0.7863742000045022,0.1,true,tree,tree,occlusion,high,mask,partial viewing,few large,Stimulus\all_stim\occlusion\partialviewing\fewlarge\high\fewlarge_partialViewing_high_tree8.png,mask_img/000000022355.png,experiment,e,e,777.021828099998
V3,13,23,Female,Right,208,Block 2,0.5842959000001429,0.05,true,tree,tree,occlusion,high,mask,partial viewing,many small,Stimulus\all_stim\occlusion\partialviewing\manysmall\high\manysmall_partialViewing_high_tree4.png,mask_img/000000053143.png,experiment,e,e,778.3676192999992
V3,13,23,Female,Right,209,Block 2,1.0535098999971524,0.1,true,bird,bird,occlusion,low,mask,partial viewing,few large,Stimulus\all_stim\occlusion\partialviewing\fewlarge\low\fewlarge_partialViewing_low_bird2.png,mask_img/000000024125.png,experiment,i,i,780.3500262999951
V3,13,23,Female,Right,210,Block 2,1.2352389000006951,0.1,true,cat,cat,occlusion,low,mask,partial viewing,few large,Stimulus\all_stim\occlusion\partialviewing\fewlarge\low\fewlarge_partialViewing_low_cat6.png,mask_img/000000027764.png,experiment,o,o,782.6459906999953
V3,13,23,Female,Right,211,Block 2,1.3979967999985092,0.05,true,building,building,occlusion,low,mask,partial viewing,few large,Stimulus\all_stim\occlusion\partialviewing\fewlarge\low\fewlarge_partialViewing_low_building8.png,mask_img/000000025453.png,experiment,u,u,784.8699402999991
V3,13,23,Female,Right,212,Block 2,0.8142353000002913,0.025,true,building,building,occlusion,low,mask,partial viewing,many small,Stimulus\all_stim\occlusion\partialviewing\manysmall\low\manysmall_partialViewing_low_building9.png,mask_img/000000058102.png,experiment,u,u,786.8377608999945
V3,13,23,Female,Right,213,Block 2,1.4916927999947802,0.05,true,bird,bird,occlusion,high,mask,partial viewing,many small,Stimulus\all_stim\occlusion\partialviewing\manysmall\high\manysmall_partialViewing_high_bird8.png,mask_img/000000044831.png,experiment,i,i,789.0877854999999
V3,13,23,Female,Right,214,Block 2,1.0878576000031899,0.05,true,tree,tree,occlusion,control,mask,partial viewing,many small,Stimulus\all_stim\occlusion\partialviewing\manysmall\control\manysmall_partialViewing_control_tree7.png,mask_img/000000041434.png,experiment,e,e,791.1257855000003
V3,13,23,Female,Right,215,Block 2,1.124680000000808,0.025,true,bus,bus,occlusion,control,mask,partial viewing,many small,Stimulus\all_stim\occlusion\partialviewing\manysmall\control\manysmall_partialViewing_control_bus9.png,mask_img/000000037864.png,experiment,q,q,793.1098332999973
V3,13,23,Female,Right,216,Block 2,1.1155159999980242,0.025,true,tree,tree,occlusion,control,mask,partial viewing,many small,Stimulus\all_stim\occlusion\partialviewing\manysmall\control\manysmall_partialViewing_control_tree3.png,mask_img/000000041014.png,experiment,e,e,795.2059385999964
V3,13,23,Female,Right,217,Block 2,1.0497528999985661,0.05,true,building,building,occlusion,low,mask,partial viewing,many small,Stimulus\all_stim\occlusion\partialviewing\manysmall\low\manysmall_partialViewing_low_building6.png,mask_img/000000057979.png,experiment,u,u,797.3256442999991
V3,13,23,Female,Right,218,Block 2,0.8535405000002356,0.05,true,firehydrant,firehydrant,occlusion,control,mask,partial viewing,many small,Stimulus\all_stim\occlusion\partialviewing\manysmall\control\manysmall_partialViewing_control_firehydrant8.png,mask_img/000000039553.png,experiment,r,r,799.1115337999945
V3,13,23,Female,Right,219,Block 2,1.2037821999983862,0.05,true,cat,cat,occlusion,high,mask,partial viewing,many small,Stimulus\all_stim\occlusion\partialviewing\manysmall\high\manysmall_partialViewing_high_cat3.png,mask_img/000000049254.png,experiment,o,o,801.3900044999973
V3,13,23,Female,Right,220,Block 2,0.9059336000063922,0.05,true,firehydrant,firehydrant,occlusion,low,mask,partial viewing,many small,Stimulus\all_stim\occlusion\partialviewing\manysmall\low\manysmall_partialViewing_low_firehydrant3.png,mask_img/000000060572.png,experiment,r,r,803.0456649999978
V3,13,23,Female,Right,221,Block 2,1.4658825999940746,0.025,true,bird,bird,occlusion,high,mask,partial viewing,few large,Stimulus\all_stim\occlusion\partialviewing\fewlarge\high\fewlarge_partialViewing_high_bird8.png,mask_img/000000014168.png,experiment,i,i,805.1740028999993
V3,13,23,Female,Right,222,Block 2,0.9345845999996527,0.1,true,firehydrant,firehydrant,occlusion,control,mask,partial viewing,few large,Stimulus\all_stim\occlusion\partialviewing\fewlarge\control\fewlarge_partialViewing_control_firehydrant5.png,mask_img/000000008006.png,experiment,r,r,806.8696740999949
V3,13,23,Female,Right,223,Block 2,1.0569089999989956,0.05,true,tree,tree,occlusion,high,mask,partial viewing,many small,Stimulus\all_stim\occlusion\partialviewing\manysmall\high\manysmall_partialViewing_high_tree8.png,mask_img/000000054334.png,experiment,e,e,808.6137911999976
V3,13,23,Female,Right,224,Block 2,0.7626467999943998,0.05,true,person,person,occlusion,control,mask,partial viewing,many small,Stimulus\all_stim\occlusion\partialviewing\manysmall\control\manysmall_partialViewing_control_person3.png,mask_img/000000040008.png,experiment,w,w,810.3577259999947
V3,13,23,Female,Right,225,Block 2,0.7184477999981027,0.1,true,person,person,occlusion,control,mask,partial viewing,many small,Stimulus\all_stim\occlusion\partialviewing\manysmall\control\manysmall_partialViewing_control_person8.png,mask_img/000000040466.png,experiment,w,w,812.0940741000013
V3,13,23,Female,Right,226,Block 2,0.8364234000036959,0.1,true,banana,banana,occlusion,control,mask,partial viewing,many small,Stimulus\all_stim\occlusion\partialviewing\manysmall\control\manysmall_partialViewing_control_banana4.png,mask_img/000000033667.png,experiment,p,p,813.9769573999947
V3,13,23,Female,Right,227,Block 2,1.1015349000008428,0.1,true,firehydrant,firehydrant,occlusion,low,mask,partial viewing,few large,Stimulus\all_stim\occlusion\partialviewing\fewlarge\low\fewlarge_partialViewing_low_firehydrant5.png,mask_img/000000028698.png,experiment,r,r,815.9179439
V3,13,23,Female,Right,228,Block 2,1.1529585999960545,0.025,false,person,firehydrant,occlusion,high,mask,partial viewing,many small,Stimulus\all_stim\occlusion\partialviewing\manysmall\high\manysmall_partialViewing_high_person2.png,mask_img/000000051461.png,experiment,r,w,818.0538621000014
V3,13,23,Female,Right,229,Block 2,0.9281952000019373,0.1,true,person,person,occlusion,control,mask,partial viewing,few large,Stimulus\all_stim\occlusion\partialviewing\fewlarge\control\fewlarge_partialViewing_control_person4.png,mask_img/000000009178.png,experiment,w,w,819.6796816999995
V3,13,23,Female,Right,230,Block 2,0.9429645000054734,0.1,true,firehydrant,firehydrant,occlusion,high,mask,partial viewing,few large,Stimulus\all_stim\occlusion\partialviewing\fewlarge\high\fewlarge_partialViewing_high_firehydrant5.png,mask_img/000000018982.png,experiment,r,r,821.3417435999945
V3,13,23,Female,Right,231,Block 2,0.8922000000020489,0.025,true,bus,bus,occlusion,low,mask,partial viewing,many small,Stimulus\all_stim\occlusion\partialviewing\manysmall\low\manysmall_partialViewing_low_bus3.png,mask_img/000000058647.png,experiment,q,q,823.3258711999952
V3,13,23,Female,Right,232,Block 2,0.930340899998555,0.05,true,person,person,occlusion,low,mask,partial viewing,many small,Stimulus\all_stim\occlusion\partialviewing\manysmall\low\manysmall_partialViewing_low_person9.png,mask_img/000000062427.png,experiment,w,w,825.3500414999944
V3,13,23,Female,Right,233,Block 2,0.7889288999940618,0.025,true,firehydrant,firehydrant,occlusion,control,mask,partial viewing,many small,Stimulus\all_stim\occlusion\partialviewing\manysmall\control\manysmall_partialViewing_control_firehydrant6.png,mask_img/000000039406.png,experiment,r,r,826.9254925999994
V3,13,23,Female,Right,234,Block 2,1.1612721999990754,0.1,true,cat,cat,occlusion,control,mask,partial viewing,few large,Stimulus\all_stim\occlusion\partialviewing\fewlarge\control\fewlarge_partialViewing_control_cat2.png,mask_img/000000006489.png,experiment,o,o,828.8696911000006
V3,13,23,Female,Right,235,Block 2,0.9257582999998704,0.05,true,bus,bus,occlusion,high,mask,partial viewing,few large,Stimulus\all_stim\occlusion\partialviewing\fewlarge\high\fewlarge_partialViewing_high_bus1.png,mask_img/000000015645.png,experiment,q,q,830.6461557000002
V3,13,23,Female,Right,236,Block 2,0.9592267000043648,0.05,true,cat,cat,occlusion,control,mask,partial viewing,many small,Stimulus\all_stim\occlusion\partialviewing\manysmall\control\manysmall_partialViewing_control_cat9.png,mask_img/000000038862.png,experiment,o,o,832.5016763999956
V3,13,23,Female,Right,237,Block 2,0.8896603999965009,0.1,true,bus,bus,occlusion,low,mask,partial viewing,many small,Stimulus\all_stim\occlusion\partialviewing\manysmall\low\manysmall_partialViewing_low_bus2.png,mask_img/000000058627.png,experiment,q,q,834.5578428000008
V3,13,23,Female,Right,238,Block 2,0.7956844000000274,0.025,true,bus,bus,occlusion,control,mask,partial viewing,few large,Stimulus\all_stim\occlusion\partialviewing\fewlarge\control\fewlarge_partialViewing_control_bus5.png,mask_img/000000005615.png,experiment,q,q,836.3497513999973
V3,13,23,Female,Right,239,Block 2,1.670425800002704,0.025,true,building,building,occlusion,control,mask,partial viewing,many small,Stimulus\all_stim\occlusion\partialviewing\manysmall\control\manysmall_partialViewing_control_building5.png,mask_img/000000036004.png,experiment,u,u,839.0316596999983
V3,13,23,Female,Right,240,Block 2,1.2697152000037022,0.05,true,person,person,occlusion,high,mask,partial viewing,few large,Stimulus\all_stim\occlusion\partialviewing\fewlarge\high\fewlarge_partialViewing_high_person4.png,mask_img/000000020202.png,experiment,w,w,841.3097512999957
V3,13,23,Female,Right,241,Block 2,1.077048899998772,0.025,true,building,building,occlusion,low,mask,partial viewing,few large,Stimulus\all_stim\occlusion\partialviewing\fewlarge\low\fewlarge_partialViewing_low_building5.png,mask_img/000000025034.png,experiment,u,u,843.4298314999978
V3,13,23,Female,Right,242,Block 2,1.1173966999995173,0.1,true,cat,cat,occlusion,control,mask,partial viewing,many small,Stimulus\all_stim\occlusion\partialviewing\manysmall\control\manysmall_partialViewing_control_cat2.png,mask_img/000000038375.png,experiment,o,o,845.3418093
V3,13,23,Female,Right,243,Block 2,0.8475189000018872,0.1,true,person,person,occlusion,control,mask,partial viewing,many small,Stimulus\all_stim\occlusion\partialviewing\manysmall\control\manysmall_partialViewing_control_person9.png,mask_img/000000040771.png,experiment,w,w,847.0057776999965
V3,13,23,Female,Right,244,Block 2,1.1994546999994782,0.05,true,tree,tree,occlusion,low,mask,partial viewing,few large,Stimulus\all_stim\occlusion\partialviewing\fewlarge\low\fewlarge_partialViewing_low_tree7.png,mask_img/000000032906.png,experiment,e,e,848.9176843999958
V3,13,23,Female,Right,245,Block 2,1.397525600004883,0.1,true,building,building,occlusion,control,mask,partial viewing,few large,Stimulus\all_stim\occlusion\partialviewing\fewlarge\control\fewlarge_partialViewing_control_building4.png,mask_img/000000004239.png,experiment,u,u,851.3179496999946
V3,13,23,Female,Right,246,Block 2,1.0703114999996615,0.025,true,bird,bird,occlusion,control,mask,partial viewing,many small,Stimulus\all_stim\occlusion\partialviewing\manysmall\control\manysmall_partialViewing_control_bird3.png,mask_img/000000034570.png,experiment,i,i,853.4377810000005
V3,13,23,Female,Right,247,Block 2,1.5216065999993589,0.05,false,firehydrant,cat,occlusion,high,mask,partial viewing,few large,Stimulus\all_stim\occlusion\partialviewing\fewlarge\high\fewlarge_partialViewing_high_firehydrant8.png,mask_img/000000019528.png,experiment,o,r,856.0297981999975
V3,13,23,Female,Right,248,Block 2,1.1170670999999857,0.05,true,bus,bus,occlusion,low,mask,partial viewing,few large,Stimulus\all_stim\occlusion\partialviewing\fewlarge\low\fewlarge_partialViewing_low_bus5.png,mask_img/000000026497.png,experiment,q,q,858.1335934999952
V3,13,23,Female,Right,249,Block 2,1.6471055000001797,0.05,true,cat,cat,occlusion,high,mask,partial viewing,many small,Stimulus\all_stim\occlusion\partialviewing\manysmall\high\manysmall_partialViewing_high_cat4.png,mask_img/000000049331.png,experiment,o,o,860.6620779000004
V3,13,23,Female,Right,250,Block 2,0.8094356000001426,0.05,true,bird,bird,occlusion,high,mask,partial viewing,few large,Stimulus\all_stim\occlusion\partialviewing\fewlarge\high\fewlarge_partialViewing_high_bird5.png,mask_img/000000013914.png,experiment,i,i,862.2378719999979
V3,13,23,Female,Right,251,Block 2,0.9353409000032116,0.025,false,firehydrant,bird,occlusion,high,mask,partial viewing,many small,Stimulus\all_stim\occlusion\partialviewing\manysmall\high\manysmall_partialViewing_high_firehydrant8.png,mask_img/000000050794.png,experiment,i,r,864.1818789999961
V3,13,23,Female,Right,252,Block 2,0.8058967999968445,0.025,true,cat,cat,occlusion,high,mask,partial viewing,few large,Stimulus\all_stim\occlusion\partialviewing\fewlarge\high\fewlarge_partialViewing_high_cat9.png,mask_img/000000017858.png,experiment,o,o,866.0617348000014
V3,13,23,Female,Right,253,Block 2,0.8976096000042162,0.025,true,firehydrant,firehydrant,occlusion,low,mask,partial viewing,many small,Stimulus\all_stim\occlusion\partialviewing\manysmall\low\manysmall_partialViewing_low_firehydrant3.png,mask_img/000000060572.png,experiment,r,r,867.7656901000009
V3,13,23,Female,Right,254,Block 2,1.0507398999980069,0.025,true,tree,tree,occlusion,low,mask,partial viewing,many small,Stimulus\all_stim\occlusion\partialviewing\manysmall\low\manysmall_partialViewing_low_tree7.png,mask_img/000000063754.png,experiment,e,e,869.6218063999986
V3,13,23,Female,Right,255,Block 2,1.1379797999979928,0.05,false,cat,bird,occlusion,high,mask,partial viewing,few large,Stimulus\all_stim\occlusion\partialviewing\fewlarge\high\fewlarge_partialViewing_high_cat8.png,mask_img/000000017791.png,experiment,i,o,871.7496142999953
V3,13,23,Female,Right,256,Block 2,1.0503062999996473,0.05,true,tree,tree,occlusion,high,mask,partial viewing,many small,Stimulus\all_stim\occlusion\partialviewing\manysmall\high\manysmall_partialViewing_high_tree6.png,mask_img/000000053539.png,experiment,e,e,873.7259080000003
V3,13,23,Female,Right,257,Block 2,0.7783000999988872,0.025,true,tree,tree,occlusion,high,mask,partial viewing,few large,Stimulus\all_stim\occlusion\partialviewing\fewlarge\high\fewlarge_partialViewing_high_tree1.png,mask_img/000000021206.png,experiment,e,e,875.1815841999996
V3,13,23,Female,Right,258,Block 2,0.9690602999980911,0.05,true,building,building,occlusion,high,mask,partial viewing,many small,Stimulus\all_stim\occlusion\partialviewing\manysmall\high\manysmall_partialViewing_high_building3.png,mask_img/000000045655.png,experiment,u,u,876.8858246999953
V3,13,23,Female,Right,259,Block 2,0.748509600001853,0.1,true,person,person,occlusion,control,mask,partial viewing,many small,Stimulus\all_stim\occlusion\partialviewing\manysmall\control\manysmall_partialViewing_control_person2.png,mask_img/000000039971.png,experiment,w,w,878.6456963999954
V3,13,23,Female,Right,260,Block 2,0.8998737000001711,0.1,true,cat,cat,occlusion,high,mask,partial viewing,many small,Stimulus\all_stim\occlusion\partialviewing\manysmall\high\manysmall_partialViewing_high_cat9.png,mask_img/000000049933.png,experiment,o,o,880.4936196999988
V3,13,23,Female,Right,261,Block 2,1.1122113000019453,0.025,true,bird,bird,occlusion,high,mask,partial viewing,many small,Stimulus\all_stim\occlusion\partialviewing\manysmall\high\manysmall_partialViewing_high_bird5.png,mask_img/000000044437.png,experiment,i,i,882.5415253999963
V3,13,23,Female,Right,262,Block 2,1.004998099997465,0.1,true,bus,bus,occlusion,low,mask,partial viewing,few large,Stimulus\all_stim\occlusion\partialviewing\fewlarge\low\fewlarge_partialViewing_low_bus6.png,mask_img/000000026503.png,experiment,q,q,884.4536519999965
V3,13,23,Female,Right,263,Block 2,0.9966570999968098,0.025,true,cat,cat,occlusion,control,mask,partial viewing,many small,Stimulus\all_stim\occlusion\partialviewing\manysmall\control\manysmall_partialViewing_control_cat2.png,mask_img/000000038375.png,experiment,o,o,886.4780043999999
V3,13,23,Female,Right,264,Block 2,0.8705056999970111,0.1,true,bird,bird,occlusion,control,mask,partial viewing,many small,Stimulus\all_stim\occlusion\partialviewing\manysmall\control\manysmall_partialViewing_control_bird6.png,mask_img/000000034993.png,experiment,i,i,888.2153169999947
V3,13,23,Female,Right,265,Block 2,0.8576669999965816,0.1,true,building,building,occlusion,low,mask,partial viewing,many small,Stimulus\all_stim\occlusion\partialviewing\manysmall\low\manysmall_partialViewing_low_building8.png,mask_img/000000058073.png,experiment,u,u,889.7737917999984
V3,13,23,Female,Right,266,Block 2,1.24468170000182,0.1,false,firehydrant,bird,occlusion,low,mask,partial viewing,many small,Stimulus\all_stim\occlusion\partialviewing\manysmall\low\manysmall_partialViewing_low_firehydrant4.png,mask_img/000000060610.png,experiment,i,r,891.9579042999976
V3,13,23,Female,Right,267,Block 2,0.7725435000029393,0.1,true,bird,bird,occlusion,low,mask,partial viewing,few large,Stimulus\all_stim\occlusion\partialviewing\fewlarge\low\fewlarge_partialViewing_low_bird4.png,mask_img/000000024193.png,experiment,i,i,893.4855897999951
V3,13,23,Female,Right,268,Block 2,1.2917032999976072,0.1,true,bus,bus,occlusion,high,mask,partial viewing,many small,Stimulus\all_stim\occlusion\partialviewing\manysmall\high\manysmall_partialViewing_high_bus3.png,mask_img/000000047229.png,experiment,q,q,895.7578801999989
V3,13,23,Female,Right,269,Block 2,0.6906622000024072,0.025,true,banana,banana,occlusion,control,mask,partial viewing,many small,Stimulus\all_stim\occlusion\partialviewing\manysmall\control\manysmall_partialViewing_control_banana10.png,mask_img/000000033074.png,experiment,p,p,897.2936120000013
V3,13,23,Female,Right,270,Block 2,1.0118118000027607,0.025,true,cat,cat,occlusion,low,mask,partial viewing,few large,Stimulus\all_stim\occlusion\partialviewing\fewlarge\low\fewlarge_partialViewing_low_cat5.png,mask_img/000000027704.png,experiment,o,o,899.1816742999945
V3,13,23,Female,Right,271,Block 2,0.7913547999996808,0.025,true,banana,banana,occlusion,high,mask,partial viewing,many small,Stimulus\all_stim\occlusion\partialviewing\manysmall\high\manysmall_partialViewing_high_banana6.png,mask_img/000000042704.png,experiment,p,p,900.8615342999983
V3,13,23,Female,Right,272,Block 2,0.976213200003258,0.1,true,firehydrant,firehydrant,occlusion,high,mask,partial viewing,many small,Stimulus\all_stim\occlusion\partialviewing\manysmall\high\manysmall_partialViewing_high_firehydrant10.png,mask_img/000000050148.png,experiment,r,r,902.8504523999945
V3,13,23,Female,Right,273,Block 2,1.363800799997989,0.05,true,building,building,occlusion,high,mask,partial viewing,many small,Stimulus\all_stim\occlusion\partialviewing\manysmall\high\manysmall_partialViewing_high_building4.png,mask_img/000000046025.png,experiment,u,u,905.1898903999972
V3,13,23,Female,Right,274,Block 2,1.0014781999998377,0.1,false,bus,person,occlusion,high,mask,partial viewing,many small,Stimulus\all_stim\occlusion\partialviewing\manysmall\high\manysmall_partialViewing_high_bus9.png,mask_img/000000048268.png,experiment,w,q,907.2936794999987
V3,13,23,Female,Right,275,Block 2,1.3292896000057226,0.025,true,person,person,occlusion,low,mask,partial viewing,many small,Stimulus\all_stim\occlusion\partialviewing\manysmall\low\manysmall_partialViewing_low_person9.png,mask_img/000000062427.png,experiment,w,w,909.3256411999973
V3,13,23,Female,Right,276,Block 2,1.0272053000007872,0.025,true,tree,tree,occlusion,low,mask,partial viewing,many small,Stimulus\all_stim\occlusion\partialviewing\manysmall\low\manysmall_partialViewing_low_tree5.png,mask_img/000000063482.png,experiment,e,e,911.1256810999985
V3,13,23,Female,Right,277,Block 2,1.136546299996553,0.05,true,firehydrant,firehydrant,occlusion,control,mask,partial viewing,many small,Stimulus\all_stim\occlusion\partialviewing\manysmall\control\manysmall_partialViewing_control_firehydrant4.png,mask_img/000000039141.png,experiment,r,r,912.9897712999955
V3,13,23,Female,Right,278,Block 2,1.143961900001159,0.05,true,building,building,occlusion,control,mask,partial viewing,few large,Stimulus\all_stim\occlusion\partialviewing\fewlarge\control\fewlarge_partialViewing_control_building9.png,mask_img/000000005131.png,experiment,u,u,915.2697176000001
V3,13,23,Female,Right,279,Block 2,0.9624459000042407,0.05,true,bird,bird,occlusion,control,mask,partial viewing,many small,Stimulus\all_stim\occlusion\partialviewing\manysmall\control\manysmall_partialViewing_control_bird2.png,mask_img/000000034455.png,experiment,i,i,917.1659280999957
V3,13,23,Female,Right,280,Block 2,1.2865233999982593,0.1,true,person,person,occlusion,control,mask,partial viewing,few large,Stimulus\all_stim\occlusion\partialviewing\fewlarge\control\fewlarge_partialViewing_control_person7.png,mask_img/000000009648.png,experiment,w,w,919.3262958999985
V3,13,23,Female,Right,281,Block 2,1.1541622000004281,0.05,true,bird,bird,occlusion,high,mask,partial viewing,few large,Stimulus\all_stim\occlusion\partialviewing\fewlarge\high\fewlarge_partialViewing_high_bird10.png,mask_img/000000013127.png,experiment,i,i,921.6396419999946
V3,13,23,Female,Right,282,Block 2,1.035990900003526,0.05,true,firehydrant,firehydrant,occlusion,high,mask,partial viewing,many small,Stimulus\all_stim\occlusion\partialviewing\manysmall\high\manysmall_partialViewing_high_firehydrant4.png,mask_img/000000050412.png,experiment,r,r,923.5110528000005
V3,13,23,Female,Right,283,Block 2,1.546107200003462,0.05,true,bus,bus,occlusion,high,mask,partial viewing,few large,Stimulus\all_stim\occlusion\partialviewing\fewlarge\high\fewlarge_partialViewing_high_bus6.png,mask_img/000000015987.png,experiment,q,q,925.8699800999966
V3,13,23,Female,Right,284,Block 2,1.1205704999956652,0.05,true,cat,cat,occlusion,control,mask,partial viewing,many small,Stimulus\all_stim\occlusion\partialviewing\manysmall\control\manysmall_partialViewing_control_cat8.png,mask_img/000000038817.png,experiment,o,o,927.8074185000005
V3,13,23,Female,Right,285,Block 2,0.7581443999952171,0.1,true,banana,banana,occlusion,low,mask,partial viewing,few large,Stimulus\all_stim\occlusion\partialviewing\fewlarge\low\fewlarge_partialViewing_low_banana7.png,mask_img/000000023511.png,experiment,p,p,929.3899050999971
V3,13,23,Female,Right,286,Block 2,1.4771364999978687,0.025,true,building,building,occlusion,high,mask,partial viewing,many small,Stimulus\all_stim\occlusion\partialviewing\manysmall\high\manysmall_partialViewing_high_building7.png,mask_img/000000046171.png,experiment,u,u,931.9736430999983
V3,13,23,Female,Right,287,Block 2,1.1096092000007047,0.1,true,bird,bird,occlusion,low,mask,partial viewing,many small,Stimulus\all_stim\occlusion\partialviewing\manysmall\low\manysmall_partialViewing_low_bird8.png,mask_img/000000056137.png,experiment,i,i,934.1497845999984
V3,13,23,Female,Right,288,Block 2,1.4669247999991057,0.025,true,firehydrant,firehydrant,occlusion,high,mask,partial viewing,many small,Stimulus\all_stim\occlusion\partialviewing\manysmall\high\manysmall_partialViewing_high_firehydrant9.png,mask_img/000000051164.png,experiment,r,r,938.725649299995
V3,13,23,Female,Right,289,Block 3,0.8331351000015275,0.05,true,person,person,occlusion,low,mask,partial viewing,few large,Stimulus\all_stim\occlusion\partialviewing\fewlarge\low\fewlarge_partialViewing_low_person10.png,mask_img/000000029128.png,experiment,w,w,940.575365699995
V3,13,23,Female,Right,290,Block 3,1.3650195000009262,0.025,true,building,building,occlusion,control,mask,partial viewing,many small,Stimulus\all_stim\occlusion\partialviewing\manysmall\control\manysmall_partialViewing_control_building4.png,mask_img/000000035985.png,experiment,u,u,942.6378059999988
V3,13,23,Female,Right,291,Block 3,1.597709500005294,0.1,true,cat,cat,occlusion,low,mask,partial viewing,many small,Stimulus\all_stim\occlusion\partialviewing\manysmall\low\manysmall_partialViewing_low_cat4.png,mask_img/000000059483.png,experiment,o,o,945.3737459999975
V3,13,23,Female,Right,292,Block 3,0.808834499999648,0.025,true,bird,bird,occlusion,control,mask,partial viewing,few large,Stimulus\all_stim\occlusion\partialviewing\fewlarge\control\fewlarge_partialViewing_control_bird8.png,mask_img/000000002822.png,experiment,i,i,947.0060212999961
V3,13,23,Female,Right,293,Block 3,0.889318400004413,0.1,true,bird,bird,occlusion,control,mask,partial viewing,many small,Stimulus\all_stim\occlusion\partialviewing\manysmall\control\manysmall_partialViewing_control_bird3.png,mask_img/000000034570.png,experiment,i,i,948.9575693000006
V3,13,23,Female,Right,294,Block 3,0.7952327000020887,0.1,true,bird,bird,occlusion,high,mask,partial viewing,few large,Stimulus\all_stim\occlusion\partialviewing\fewlarge\high\fewlarge_partialViewing_high_bird7.png,mask_img/000000013949.png,experiment,i,i,950.5976726999943
V3,13,23,Female,Right,295,Block 3,0.9217977000007522,0.025,true,firehydrant,firehydrant,occlusion,control,mask,partial viewing,many small,Stimulus\all_stim\occlusion\partialviewing\manysmall\control\manysmall_partialViewing_control_firehydrant5.png,mask_img/000000039211.png,experiment,r,r,952.6855570999978
V3,13,23,Female,Right,296,Block 3,0.8498925999956555,0.05,true,firehydrant,firehydrant,occlusion,high,mask,partial viewing,few large,Stimulus\all_stim\occlusion\partialviewing\fewlarge\high\fewlarge_partialViewing_high_firehydrant2.png,mask_img/000000018743.png,experiment,r,r,954.5734008
V3,13,23,Female,Right,297,Block 3,1.305067399996915,0.05,true,bird,bird,occlusion,control,mask,partial viewing,many small,Stimulus\all_stim\occlusion\partialviewing\manysmall\control\manysmall_partialViewing_control_bird10.png,mask_img/000000034304.png,experiment,i,i,956.9658417999963
V3,13,23,Female,Right,298,Block 3,0.8018930999969598,0.025,true,cat,cat,occlusion,low,mask,partial viewing,few large,Stimulus\all_stim\occlusion\partialviewing\fewlarge\low\fewlarge_partialViewing_low_cat6.png,mask_img/000000027764.png,experiment,o,o,958.5338033000007
V3,13,23,Female,Right,299,Block 3,0.9342252999995253,0.05,false,building,bird,occlusion,high,mask,partial viewing,many small,Stimulus\all_stim\occlusion\partialviewing\manysmall\high\manysmall_partialViewing_high_building5.png,mask_img/000000046029.png,experiment,i,u,960.5977685999969
V3,13,23,Female,Right,300,Block 3,1.136326600004395,0.1,true,firehydrant,firehydrant,occlusion,control,mask,partial viewing,few large,Stimulus\all_stim\occlusion\partialviewing\fewlarge\control\fewlarge_partialViewing_control_firehydrant7.png,mask_img/000000008053.png,experiment,r,r,962.3900282999966
V3,13,23,Female,Right,301,Block 3,1.2589896999998018,0.1,true,person,person,occlusion,control,mask,partial viewing,few large,Stimulus\all_stim\occlusion\partialviewing\fewlarge\control\fewlarge_partialViewing_control_person3.png,mask_img/000000008920.png,experiment,w,w,964.6296446999986
V3,13,23,Female,Right,302,Block 3,1.126206100001582,0.1,true,bird,bird,occlusion,control,mask,partial viewing,many small,Stimulus\all_stim\occlusion\partialviewing\manysmall\control\manysmall_partialViewing_control_bird8.png,mask_img/000000035190.png,experiment,i,i,966.7177492999981
V3,13,23,Female,Right,303,Block 3,0.8503440999993472,0.05,true,firehydrant,firehydrant,occlusion,low,mask,partial viewing,many small,Stimulus\all_stim\occlusion\partialviewing\manysmall\low\manysmall_partialViewing_low_firehydrant9.png,mask_img/000000061693.png,experiment,r,r,968.6619997999951
V3,13,23,Female,Right,304,Block 3,0.8975974999993923,0.1,true,person,person,occlusion,control,mask,partial viewing,few large,Stimulus\all_stim\occlusion\partialviewing\fewlarge\control\fewlarge_partialViewing_control_person10.png,mask_img/000000008469.png,experiment,w,w,970.4073180999985
V3,13,23,Female,Right,305,Block 3,0.9142069000008632,0.025,true,tree,tree,occlusion,low,mask,partial viewing,few large,Stimulus\all_stim\occlusion\partialviewing\fewlarge\low\fewlarge_partialViewing_low_tree6.png,mask_img/000000032720.png,experiment,e,e,972.301630199996
V3,13,23,Female,Right,306,Block 3,0.825188300004811,0.05,true,firehydrant,firehydrant,occlusion,control,mask,partial viewing,few large,Stimulus\all_stim\occlusion\partialviewing\fewlarge\control\fewlarge_partialViewing_control_firehydrant1.png,mask_img/000000007740.png,experiment,r,r,974.2860827999975
V3,13,23,Female,Right,307,Block 3,0.8209411999996519,0.025,true,banana,banana,occlusion,low,mask,partial viewing,many small,Stimulus\all_stim\occlusion\partialviewing\manysmall\low\manysmall_partialViewing_low_banana4.png,mask_img/000000055202.png,experiment,p,p,975.7736350999985
V3,13,23,Female,Right,308,Block 3,0.7587595000004512,0.1,true,banana,banana,occlusion,control,mask,partial viewing,few large,Stimulus\all_stim\occlusion\partialviewing\fewlarge\control\fewlarge_partialViewing_control_banana1.png,mask_img/000000000042.png,experiment,p,p,977.2454534999997
V3,13,23,Female,Right,309,Block 3,0.9524803000022075,0.1,true,person,person,occlusion,high,mask,partial viewing,few large,Stimulus\all_stim\occlusion\partialviewing\fewlarge\high\fewlarge_partialViewing_high_person3.png,mask_img/000000020147.png,experiment,w,w,979.3177431000004
V3,13,23,Female,Right,310,Block 3,0.92713690000528,0.1,true,tree,tree,occlusion,control,mask,partial viewing,many small,Stimulus\all_stim\occlusion\partialviewing\manysmall\control\manysmall_partialViewing_control_tree9.png,mask_img/000000041840.png,experiment,e,e,981.1653714999993
V3,13,23,Female,Right,311,Block 3,0.80794109999988,0.025,true,person,person,occlusion,high,mask,partial viewing,many small,Stimulus\all_stim\occlusion\partialviewing\manysmall\high\manysmall_partialViewing_high_person4.png,mask_img/000000052087.png,experiment,w,w,982.845810699997
V3,13,23,Female,Right,312,Block 3,0.8155173000050127,0.05,true,person,person,occlusion,high,mask,partial viewing,many small,Stimulus\all_stim\occlusion\partialviewing\manysmall\high\manysmall_partialViewing_high_person3.png,mask_img/000000051880.png,experiment,w,w,984.4374874999994
V3,13,23,Female,Right,313,Block 3,1.1358162999968044,0.025,true,bird,bird,occlusion,high,mask,partial viewing,few large,Stimulus\all_stim\occlusion\partialviewing\fewlarge\high\fewlarge_partialViewing_high_bird4.png,mask_img/000000013721.png,experiment,i,i,986.4697165999969
V3,13,23,Female,Right,314,Block 3,0.7382451000012225,0.1,true,bird,bird,occlusion,low,mask,partial viewing,few large,Stimulus\all_stim\occlusion\partialviewing\fewlarge\low\fewlarge_partialViewing_low_bird7.png,mask_img/000000024403.png,experiment,i,i,987.949569299999
V3,13,23,Female,Right,315,Block 3,0.8908301000046777,0.1,true,building,building,occlusion,control,mask,partial viewing,few large,Stimulus\all_stim\occlusion\partialviewing\fewlarge\control\fewlarge_partialViewing_control_building7.png,mask_img/000000004936.png,experiment,u,u,989.9014696000013
V3,13,23,Female,Right,316,Block 3,0.8400924000015948,0.1,true,person,person,occlusion,control,mask,partial viewing,many small,Stimulus\all_stim\occlusion\partialviewing\manysmall\control\manysmall_partialViewing_control_person6.png,mask_img/000000040325.png,experiment,w,w,991.7577305000013
