Version,pt_num,Age,Gender,Handedness,trial_nbr,block_number,rt,soa,acc,category,choiced_category,manipulation,difficulty,mask,type_occl,size_occl,filename,mask_filename,task,pressed_key,correct_key,Experiment Duration
V3,22,21,Female,Right,1,Training,2.5598817999998573,0.025,true,bird,bird,occlusion,control,mask,partial viewing,few large,Training_Stimulus\fewlarge_partialViewing_control_bird4.png,mask_img/000000000109.png,training,o,o,114.96902639998007
V3,22,21,Female,Right,2,Training,2.5586791000096127,0.1,true,cat,cat,occlusion,low,mask,partial viewing,few large,Training_Stimulus\fewlarge_partialViewing_low_cat432.png,mask_img/000000003084.png,training,u,u,119.07599819998723
V3,22,21,Female,Right,3,Training,3.303353099996457,0.025,false,person,cat,occlusion,low,mask,partial viewing,few large,Training_Stimulus\fewlarge_partialViewing_low_person189.png,mask_img/000000003483.png,training,u,e,123.68781889998354
V3,22,21,Female,Right,4,Training,2.1874346999975387,0.025,true,building,building,occlusion,control,mask,partial viewing,few large,Training_Stimulus\fewlarge_partialViewing_control_building24.png,mask_img/000000000312.png,training,i,i,127.02372689999174
V3,22,21,Female,Right,5,Training,1.8577360000053886,0.05,true,banana,banana,occlusion,control,mask,partial viewing,few large,Training_Stimulus\fewlarge_partialViewing_control_banana454.png,mask_img/000000000042.png,training,w,w,130.03933010000037
V3,22,21,Female,Right,6,Training,1.1158227999985684,0.05,true,firehydrant,firehydrant,occlusion,control,mask,partial viewing,few large,Training_Stimulus\fewlarge_partialViewing_control_firehydrant90.png,mask_img/000000000459.png,training,q,q,132.5392751999898
V3,22,21,Female,Right,7,Training,1.8153963000222575,0.025,true,bus,bus,occlusion,high,mask,partial viewing,few large,Training_Stimulus\fewlarge_partialViewing_high_bus180.png,mask_img/000000001053.png,training,r,r,135.72672770000645
V3,22,21,Female,Right,8,Training,3.4338523999904282,0.1,true,tree,tree,occlusion,high,mask,partial viewing,many small,Training_Stimulus\manysmall_partialViewing_high_tree9.png,mask_img/000000006263.png,training,p,p,140.35277559998212
V3,22,21,Female,Right,9,Training,1.9705874999926891,0.025,true,bird,bird,occlusion,control,mask,partial viewing,many small,Training_Stimulus\manysmall_partialViewing_control_bird4.png,mask_img/000000004642.png,training,o,o,143.74371310000424
V3,22,21,Female,Right,10,Training,1.761167899996508,0.025,true,person,person,occlusion,high,mask,partial viewing,few large,Training_Stimulus\fewlarge_partialViewing_high_person189.png,mask_img/000000001997.png,training,e,e,146.93109539998113
V3,22,21,Female,Right,11,Training,2.3290161000040825,0.025,false,firehydrant,building,occlusion,high,mask,partial viewing,many small,Training_Stimulus\manysmall_partialViewing_high_firehydrant90.png,mask_img/000000006146.png,training,i,q,150.74364869997953
V3,22,21,Female,Right,12,Training,1.1069986000075005,0.05,false,firehydrant,building,occlusion,high,mask,partial viewing,many small,Training_Stimulus\manysmall_partialViewing_high_firehydrant90.png,mask_img/000000006146.png,training,i,q,153.07249839999713
V3,22,21,Female,Right,13,Training,1.8426575000048615,0.025,true,cat,cat,occlusion,high,mask,partial viewing,many small,Training_Stimulus\manysmall_partialViewing_high_cat432.png,mask_img/000000005862.png,training,u,u,156.1818057000055
V3,22,21,Female,Right,14,Training,1.7430200000235345,0.025,true,person,person,occlusion,control,mask,partial viewing,few large,Training_Stimulus\fewlarge_partialViewing_control_person189.png,mask_img/000000000595.png,training,e,e,159.41747179999948
V3,22,21,Female,Right,15,Training,1.5534628999885172,0.05,true,bird,bird,occlusion,low,mask,partial viewing,few large,Training_Stimulus\fewlarge_partialViewing_low_bird4.png,mask_img/000000002774.png,training,o,o,162.40195599998697
V3,22,21,Female,Right,16,Training,1.424911299982341,0.025,true,cat,cat,occlusion,low,mask,partial viewing,many small,Training_Stimulus\manysmall_partialViewing_low_cat432.png,mask_img/000000006842.png,training,u,u,164.96442239999305
V3,22,21,Female,Right,17,Training,2.810652399988612,0.025,false,tree,cat,occlusion,low,mask,partial viewing,few large,Training_Stimulus\fewlarge_partialViewing_low_tree9.png,mask_img/000000003694.png,training,u,p,168.93446059999405
V3,22,21,Female,Right,18,Training,1.6276248999929521,0.1,true,building,building,occlusion,low,mask,partial viewing,many small,Training_Stimulus\manysmall_partialViewing_low_building24.png,mask_img/000000006489.png,training,i,i,171.76259440000285
V3,22,21,Female,Right,19,Training,1.2336985000001732,0.05,true,bus,bus,occlusion,high,mask,partial viewing,few large,Training_Stimulus\fewlarge_partialViewing_high_bus180.png,mask_img/000000001053.png,training,r,r,174.421749000001
V3,22,21,Female,Right,20,Training,1.1584031000093091,0.1,true,bus,bus,occlusion,low,mask,partial viewing,few large,Training_Stimulus\fewlarge_partialViewing_low_bus180.png,mask_img/000000002892.png,training,r,r,176.88731449999614
V3,22,21,Female,Right,21,Training,1.714840100001311,0.1,true,bird,bird,occlusion,high,mask,partial viewing,many small,Training_Stimulus\manysmall_partialViewing_high_bird4.png,mask_img/000000005418.png,training,o,o,179.9813218000054
V3,22,21,Female,Right,22,Training,1.5181685000134166,0.025,false,tree,cat,occlusion,control,mask,partial viewing,many small,Training_Stimulus\manysmall_partialViewing_control_tree9.png,mask_img/000000005282.png,training,u,p,182.57507190000615
V3,22,21,Female,Right,23,Training,1.2704249999951571,0.1,true,bird,bird,occlusion,control,mask,partial viewing,many small,Training_Stimulus\manysmall_partialViewing_control_bird4.png,mask_img/000000004642.png,training,o,o,185.37199299997883
V3,22,21,Female,Right,24,Training,1.1963480999984313,0.025,true,building,building,occlusion,control,mask,partial viewing,many small,Training_Stimulus\manysmall_partialViewing_control_building24.png,mask_img/000000004739.png,training,i,i,187.68442029997823
V3,22,21,Female,Right,25,Training,1.4258663000073284,0.025,true,banana,banana,occlusion,low,mask,partial viewing,many small,Training_Stimulus\manysmall_partialViewing_low_banana454.png,mask_img/000000006437.png,training,w,w,190.41375999999582
V3,22,21,Female,Right,26,Training,1.8853062999842223,0.025,true,cat,cat,occlusion,control,mask,partial viewing,few large,Training_Stimulus\fewlarge_partialViewing_control_cat432.png,mask_img/000000000438.png,training,u,u,193.5544765999948
V3,22,21,Female,Right,27,Training,1.2365925000049174,0.05,true,bus,bus,occlusion,control,mask,partial viewing,few large,Training_Stimulus\fewlarge_partialViewing_control_bus180.png,mask_img/000000000394.png,training,r,r,196.33560989997932
V3,22,21,Female,Right,28,Training,1.181461500003934,0.025,true,cat,cat,occlusion,high,mask,partial viewing,few large,Training_Stimulus\fewlarge_partialViewing_high_cat432.png,mask_img/000000001647.png,training,u,u,198.757561299979
V3,22,21,Female,Right,29,Training,1.2869633999944199,0.05,true,person,person,occlusion,control,mask,partial viewing,few large,Training_Stimulus\fewlarge_partialViewing_control_person189.png,mask_img/000000000595.png,training,e,e,201.1947339999897
V3,22,21,Female,Right,30,Training,1.255521500017494,0.1,true,cat,cat,occlusion,high,mask,partial viewing,many small,Training_Stimulus\manysmall_partialViewing_high_cat432.png,mask_img/000000005862.png,training,u,u,203.80594019999262
V3,22,21,Female,Right,1,Block 1,0.9102751000027638,0.05,true,firehydrant,firehydrant,occlusion,low,mask,partial viewing,few large,Stimulus\all_stim\occlusion\partialviewing\fewlarge\low\fewlarge_partialViewing_low_firehydrant7.png,mask_img/000000028885.png,experiment,q,q,209.92193049998605
V3,22,21,Female,Right,2,Block 1,1.3598385999794118,0.025,false,person,cat,occlusion,high,mask,partial viewing,few large,Stimulus\all_stim\occlusion\partialviewing\fewlarge\high\fewlarge_partialViewing_high_person8.png,mask_img/000000020570.png,experiment,u,e,212.25809960000333
V3,22,21,Female,Right,3,Block 1,1.3497209000051953,0.05,false,banana,bird,occlusion,high,mask,partial viewing,many small,Stimulus\all_stim\occlusion\partialviewing\manysmall\high\manysmall_partialViewing_high_banana9.png,mask_img/000000043579.png,experiment,o,w,214.561910599994
V3,22,21,Female,Right,4,Block 1,0.9472381999948993,0.05,true,firehydrant,firehydrant,occlusion,control,mask,partial viewing,many small,Stimulus\all_stim\occlusion\partialviewing\manysmall\control\manysmall_partialViewing_control_firehydrant8.png,mask_img/000000039553.png,experiment,q,q,216.27389280000352
V3,22,21,Female,Right,5,Block 1,0.7521866000024602,0.1,true,banana,banana,occlusion,control,mask,partial viewing,few large,Stimulus\all_stim\occlusion\partialviewing\fewlarge\control\fewlarge_partialViewing_control_banana4.png,mask_img/000000000438.png,experiment,w,w,217.84964539998327
V3,22,21,Female,Right,6,Block 1,0.88020770001458,0.1,true,person,person,occlusion,control,mask,partial viewing,many small,Stimulus\all_stim\occlusion\partialviewing\manysmall\control\manysmall_partialViewing_control_person6.png,mask_img/000000040325.png,experiment,e,e,219.4655730999948
V3,22,21,Female,Right,7,Block 1,1.424595299991779,0.1,true,building,building,occlusion,high,mask,partial viewing,many small,Stimulus\all_stim\occlusion\partialviewing\manysmall\high\manysmall_partialViewing_high_building1.png,mask_img/000000044950.png,experiment,i,i,221.85756139998557
V3,22,21,Female,Right,8,Block 1,1.8856986000027973,0.05,false,cat,bird,occlusion,low,mask,partial viewing,many small,Stimulus\all_stim\occlusion\partialviewing\manysmall\low\manysmall_partialViewing_low_cat10.png,mask_img/000000059046.png,experiment,o,u,224.5938086999813
V3,22,21,Female,Right,9,Block 1,1.0812148999830242,0.1,true,building,building,occlusion,high,mask,partial viewing,few large,Stimulus\all_stim\occlusion\partialviewing\fewlarge\high\fewlarge_partialViewing_high_building4.png,mask_img/000000014592.png,experiment,i,i,226.43374049998238
V3,22,21,Female,Right,10,Block 1,1.2740511000156403,0.1,true,cat,cat,occlusion,high,mask,partial viewing,many small,Stimulus\all_stim\occlusion\partialviewing\manysmall\high\manysmall_partialViewing_high_cat7.png,mask_img/000000049602.png,experiment,u,u,228.53775369998766
V3,22,21,Female,Right,11,Block 1,1.0723055000125896,0.1,true,person,person,occlusion,control,mask,partial viewing,many small,Stimulus\all_stim\occlusion\partialviewing\manysmall\control\manysmall_partialViewing_control_person1.png,mask_img/000000039656.png,experiment,e,e,230.57798259999254
V3,22,21,Female,Right,12,Block 1,1.0383328000025358,0.1,true,bus,bus,occlusion,high,mask,partial viewing,many small,Stimulus\all_stim\occlusion\partialviewing\manysmall\high\manysmall_partialViewing_high_bus10.png,mask_img/000000046805.png,experiment,r,r,232.457479100005
V3,22,21,Female,Right,13,Block 1,1.1792900000000373,0.025,true,bird,bird,occlusion,control,mask,partial viewing,few large,Stimulus\all_stim\occlusion\partialviewing\fewlarge\control\fewlarge_partialViewing_control_bird5.png,mask_img/000000002197.png,experiment,o,o,234.5454727000033
V3,22,21,Female,Right,14,Block 1,1.6955306000018027,0.025,true,bus,bus,occlusion,control,mask,partial viewing,many small,Stimulus\all_stim\occlusion\partialviewing\manysmall\control\manysmall_partialViewing_control_bus8.png,mask_img/000000037782.png,experiment,r,r,237.28183789999457
V3,22,21,Female,Right,15,Block 1,1.5700038999784738,0.05,true,cat,cat,occlusion,high,mask,partial viewing,many small,Stimulus\all_stim\occlusion\partialviewing\manysmall\high\manysmall_partialViewing_high_cat6.png,mask_img/000000049562.png,experiment,u,u,239.88981349999085
V3,22,21,Female,Right,16,Block 1,1.4263873000163585,0.025,false,person,cat,occlusion,high,mask,partial viewing,few large,Stimulus\all_stim\occlusion\partialviewing\fewlarge\high\fewlarge_partialViewing_high_person5.png,mask_img/000000020381.png,experiment,u,e,242.44974229999934
V3,22,21,Female,Right,17,Block 1,1.6262100999883842,0.025,true,person,person,occlusion,low,mask,partial viewing,few large,Stimulus\all_stim\occlusion\partialviewing\fewlarge\low\fewlarge_partialViewing_low_person8.png,mask_img/000000030611.png,experiment,e,e,244.76179990000674
V3,22,21,Female,Right,18,Block 1,1.4907454999920446,0.025,true,building,building,occlusion,low,mask,partial viewing,few large,Stimulus\all_stim\occlusion\partialviewing\fewlarge\low\fewlarge_partialViewing_low_building8.png,mask_img/000000025453.png,experiment,i,i,247.2017421000055
V3,22,21,Female,Right,19,Block 1,1.431533599999966,0.05,false,person,cat,occlusion,high,mask,partial viewing,many small,Stimulus\all_stim\occlusion\partialviewing\manysmall\high\manysmall_partialViewing_high_person6.png,mask_img/000000052426.png,experiment,u,e,249.66597040000488
V3,22,21,Female,Right,20,Block 1,1.0753705999813974,0.1,true,firehydrant,firehydrant,occlusion,high,mask,partial viewing,few large,Stimulus\all_stim\occlusion\partialviewing\fewlarge\high\fewlarge_partialViewing_high_firehydrant3.png,mask_img/000000018864.png,experiment,q,q,251.85769229999278
V3,22,21,Female,Right,21,Block 1,1.397673700004816,0.05,true,bus,bus,occlusion,control,mask,partial viewing,few large,Stimulus\all_stim\occlusion\partialviewing\fewlarge\control\fewlarge_partialViewing_control_bus5.png,mask_img/000000005615.png,experiment,r,r,254.30585760000395
V3,22,21,Female,Right,22,Block 1,0.6846530000038911,0.05,true,firehydrant,firehydrant,occlusion,low,mask,partial viewing,many small,Stimulus\all_stim\occlusion\partialviewing\manysmall\low\manysmall_partialViewing_low_firehydrant8.png,mask_img/000000061512.png,experiment,q,q,255.89945060000173
V3,22,21,Female,Right,23,Block 1,0.8805499999725726,0.025,true,cat,cat,occlusion,high,mask,partial viewing,few large,Stimulus\all_stim\occlusion\partialviewing\fewlarge\high\fewlarge_partialViewing_high_cat6.png,mask_img/000000017476.png,experiment,u,u,257.87359030000516
V3,22,21,Female,Right,24,Block 1,0.6888577000063378,0.05,true,firehydrant,firehydrant,occlusion,high,mask,partial viewing,few large,Stimulus\all_stim\occlusion\partialviewing\fewlarge\high\fewlarge_partialViewing_high_firehydrant10.png,mask_img/000000018441.png,experiment,q,q,259.6978298999893
V3,22,21,Female,Right,25,Block 1,0.7269287999952212,0.025,true,firehydrant,firehydrant,occlusion,high,mask,partial viewing,many small,Stimulus\all_stim\occlusion\partialviewing\manysmall\high\manysmall_partialViewing_high_firehydrant5.png,mask_img/000000050496.png,experiment,q,q,261.22578649999923
V3,22,21,Female,Right,26,Block 1,0.5132268999877851,0.1,true,firehydrant,firehydrant,occlusion,low,mask,partial viewing,few large,Stimulus\all_stim\occlusion\partialviewing\fewlarge\low\fewlarge_partialViewing_low_firehydrant9.png,mask_img/000000029056.png,experiment,q,q,262.6938366999966
V3,22,21,Female,Right,27,Block 1,0.5825327000056859,0.05,true,firehydrant,firehydrant,occlusion,low,mask,partial viewing,few large,Stimulus\all_stim\occlusion\partialviewing\fewlarge\low\fewlarge_partialViewing_low_firehydrant5.png,mask_img/000000028698.png,experiment,q,q,264.12610459999996
V3,22,21,Female,Right,28,Block 1,0.8609695000050124,0.05,true,bird,bird,occlusion,high,mask,partial viewing,few large,Stimulus\all_stim\occlusion\partialviewing\fewlarge\high\fewlarge_partialViewing_high_bird2.png,mask_img/000000013169.png,experiment,o,o,266.01156359998276
V3,22,21,Female,Right,29,Block 1,2.055139100004453,0.05,true,banana,banana,occlusion,low,mask,partial viewing,few large,Stimulus\all_stim\occlusion\partialviewing\fewlarge\low\fewlarge_partialViewing_low_banana3.png,mask_img/000000023004.png,experiment,w,w,268.9858164000034
V3,22,21,Female,Right,30,Block 1,0.9997883999894839,0.05,true,cat,cat,occlusion,control,mask,partial viewing,many small,Stimulus\all_stim\occlusion\partialviewing\manysmall\control\manysmall_partialViewing_control_cat5.png,mask_img/000000038601.png,experiment,u,u,271.0418065999984
V3,22,21,Female,Right,31,Block 1,1.1315907000098377,0.1,true,bus,bus,occlusion,low,mask,partial viewing,many small,Stimulus\all_stim\occlusion\partialviewing\manysmall\low\manysmall_partialViewing_low_bus7.png,mask_img/000000058822.png,experiment,r,r,273.0095522000047
V3,22,21,Female,Right,32,Block 1,0.7640025000146125,0.05,false,banana,firehydrant,occlusion,control,mask,partial viewing,many small,Stimulus\all_stim\occlusion\partialviewing\manysmall\control\manysmall_partialViewing_control_banana8.png,mask_img/000000033904.png,experiment,q,w,274.681711799989
V3,22,21,Female,Right,33,Block 1,0.9739386000146624,0.1,true,tree,tree,occlusion,control,mask,partial viewing,many small,Stimulus\all_stim\occlusion\partialviewing\manysmall\control\manysmall_partialViewing_control_tree3.png,mask_img/000000041014.png,experiment,p,p,276.65769429999636
V3,22,21,Female,Right,34,Block 1,0.980583900003694,0.1,true,firehydrant,firehydrant,occlusion,control,mask,partial viewing,many small,Stimulus\all_stim\occlusion\partialviewing\manysmall\control\manysmall_partialViewing_control_firehydrant2.png,mask_img/000000039089.png,experiment,q,q,278.55382060000557
V3,22,21,Female,Right,35,Block 1,1.5343906999914907,0.05,true,cat,cat,occlusion,high,mask,partial viewing,few large,Stimulus\all_stim\occlusion\partialviewing\fewlarge\high\fewlarge_partialViewing_high_cat8.png,mask_img/000000017791.png,experiment,u,u,280.92987309998716
V3,22,21,Female,Right,36,Block 1,1.3203008999989834,0.05,true,person,person,occlusion,low,mask,partial viewing,few large,Stimulus\all_stim\occlusion\partialviewing\fewlarge\low\fewlarge_partialViewing_low_person6.png,mask_img/000000030267.png,experiment,e,e,283.1055323999899
V3,22,21,Female,Right,37,Block 1,1.532304499996826,0.025,true,building,building,occlusion,high,mask,partial viewing,many small,Stimulus\all_stim\occlusion\partialviewing\manysmall\high\manysmall_partialViewing_high_building5.png,mask_img/000000046029.png,experiment,i,i,285.3456624999817
V3,22,21,Female,Right,38,Block 1,1.2410565000027418,0.05,false,bird,bus,occlusion,high,mask,partial viewing,few large,Stimulus\all_stim\occlusion\partialviewing\fewlarge\high\fewlarge_partialViewing_high_bird4.png,mask_img/000000013721.png,experiment,r,o,287.41765170000144
V3,22,21,Female,Right,39,Block 1,1.1971210000046995,0.1,true,bus,bus,occlusion,high,mask,partial viewing,few large,Stimulus\all_stim\occlusion\partialviewing\fewlarge\high\fewlarge_partialViewing_high_bus6.png,mask_img/000000015987.png,experiment,r,r,289.47370599998976
V3,22,21,Female,Right,40,Block 1,1.1140326999884564,0.05,true,banana,banana,occlusion,control,mask,partial viewing,many small,Stimulus\all_stim\occlusion\partialviewing\manysmall\control\manysmall_partialViewing_control_banana7.png,mask_img/000000033861.png,experiment,w,w,291.72178679998615
V3,22,21,Female,Right,41,Block 1,1.0769836999825202,0.025,false,bird,cat,occlusion,low,mask,partial viewing,many small,Stimulus\all_stim\occlusion\partialviewing\manysmall\low\manysmall_partialViewing_low_bird9.png,mask_img/000000056641.png,experiment,u,o,293.61767509998754
V3,22,21,Female,Right,42,Block 1,0.7232326999946963,0.025,true,tree,tree,occlusion,low,mask,partial viewing,few large,Stimulus\all_stim\occlusion\partialviewing\fewlarge\low\fewlarge_partialViewing_low_tree9.png,mask_img/000000032965.png,experiment,p,p,295.28153730000486
V3,22,21,Female,Right,43,Block 1,1.3311172999965493,0.1,true,building,building,occlusion,low,mask,partial viewing,few large,Stimulus\all_stim\occlusion\partialviewing\fewlarge\low\fewlarge_partialViewing_low_building7.png,mask_img/000000025192.png,experiment,i,i,297.70597369997995
V3,22,21,Female,Right,44,Block 1,1.2935593999864068,0.1,false,person,cat,occlusion,high,mask,partial viewing,many small,Stimulus\all_stim\occlusion\partialviewing\manysmall\high\manysmall_partialViewing_high_person8.png,mask_img/000000052606.png,experiment,u,e,299.67372039999464
V3,22,21,Female,Right,45,Block 1,2.8273678999976255,0.025,false,bird,person,occlusion,high,mask,partial viewing,few large,Stimulus\all_stim\occlusion\partialviewing\fewlarge\high\fewlarge_partialViewing_high_bird4.png,mask_img/000000013721.png,experiment,e,o,303.4019185999932
V3,22,21,Female,Right,46,Block 1,1.9369813000084832,0.05,true,cat,cat,occlusion,high,mask,partial viewing,many small,Stimulus\all_stim\occlusion\partialviewing\manysmall\high\manysmall_partialViewing_high_cat4.png,mask_img/000000049331.png,experiment,u,u,306.20175539999036
V3,22,21,Female,Right,47,Block 1,0.9836562999989837,0.1,true,cat,cat,occlusion,control,mask,partial viewing,many small,Stimulus\all_stim\occlusion\partialviewing\manysmall\control\manysmall_partialViewing_control_cat6.png,mask_img/000000038753.png,experiment,u,u,308.18561709998176
V3,22,21,Female,Right,48,Block 1,1.070299699989846,0.025,true,tree,tree,occlusion,high,mask,partial viewing,few large,Stimulus\all_stim\occlusion\partialviewing\fewlarge\high\fewlarge_partialViewing_high_tree8.png,mask_img/000000022355.png,experiment,p,p,310.25769050000235
V3,22,21,Female,Right,49,Block 1,1.3419453999958932,0.025,true,person,person,occlusion,low,mask,partial viewing,few large,Stimulus\all_stim\occlusion\partialviewing\fewlarge\low\fewlarge_partialViewing_low_person4.png,mask_img/000000029730.png,experiment,e,e,312.4261201999907
V3,22,21,Female,Right,50,Block 1,0.9347695999895222,0.05,true,tree,tree,occlusion,low,mask,partial viewing,many small,Stimulus\all_stim\occlusion\partialviewing\manysmall\low\manysmall_partialViewing_low_tree8.png,mask_img/000000063804.png,experiment,p,p,314.4417761999939
V3,22,21,Female,Right,51,Block 1,1.0619784999871626,0.05,true,bird,bird,occlusion,control,mask,partial viewing,many small,Stimulus\all_stim\occlusion\partialviewing\manysmall\control\manysmall_partialViewing_control_bird6.png,mask_img/000000034993.png,experiment,o,o,316.5218506999954
V3,22,21,Female,Right,52,Block 1,0.9060382999887224,0.025,true,firehydrant,firehydrant,occlusion,high,mask,partial viewing,few large,Stimulus\all_stim\occlusion\partialviewing\fewlarge\high\fewlarge_partialViewing_high_firehydrant9.png,mask_img/000000019725.png,experiment,q,q,318.52156449999893
V3,22,21,Female,Right,53,Block 1,1.372457099991152,0.025,false,banana,bird,occlusion,low,mask,partial viewing,few large,Stimulus\all_stim\occlusion\partialviewing\fewlarge\low\fewlarge_partialViewing_low_banana2.png,mask_img/000000022983.png,experiment,o,w,320.69783439999446
V3,22,21,Female,Right,54,Block 1,0.5662765000015497,0.025,true,bird,bird,occlusion,control,mask,partial viewing,few large,Stimulus\all_stim\occlusion\partialviewing\fewlarge\control\fewlarge_partialViewing_control_bird10.png,mask_img/000000001053.png,experiment,o,o,322.3490859000012
V3,22,21,Female,Right,55,Block 1,0.9853281000105198,0.1,true,person,person,occlusion,control,mask,partial viewing,few large,Stimulus\all_stim\occlusion\partialviewing\fewlarge\control\fewlarge_partialViewing_control_person3.png,mask_img/000000008920.png,experiment,e,e,324.0658334000036
V3,22,21,Female,Right,56,Block 1,0.6279076999926474,0.025,true,tree,tree,occlusion,control,mask,partial viewing,few large,Stimulus\all_stim\occlusion\partialviewing\fewlarge\control\fewlarge_partialViewing_control_tree9.png,mask_img/000000011701.png,experiment,p,p,325.66573219999555
V3,22,21,Female,Right,57,Block 1,1.1878132999991067,0.05,true,person,person,occlusion,control,mask,partial viewing,few large,Stimulus\all_stim\occlusion\partialviewing\fewlarge\control\fewlarge_partialViewing_control_person8.png,mask_img/000000009729.png,experiment,e,e,327.8255959999806
V3,22,21,Female,Right,58,Block 1,0.7641295999928843,0.025,true,bird,bird,occlusion,control,mask,partial viewing,many small,Stimulus\all_stim\occlusion\partialviewing\manysmall\control\manysmall_partialViewing_control_bird3.png,mask_img/000000034570.png,experiment,o,o,329.731340600003
V3,22,21,Female,Right,59,Block 1,0.5983323999971617,0.025,true,tree,tree,occlusion,high,mask,partial viewing,few large,Stimulus\all_stim\occlusion\partialviewing\fewlarge\high\fewlarge_partialViewing_high_tree5.png,mask_img/000000022102.png,experiment,p,p,330.99374720000196
V3,22,21,Female,Right,60,Block 1,0.9482214000017848,0.05,true,banana,banana,occlusion,control,mask,partial viewing,few large,Stimulus\all_stim\occlusion\partialviewing\fewlarge\control\fewlarge_partialViewing_control_banana10.png,mask_img/000000000109.png,experiment,w,w,332.9297774999868
V3,22,21,Female,Right,61,Block 1,0.7981202999944799,0.05,true,tree,tree,occlusion,high,mask,partial viewing,few large,Stimulus\all_stim\occlusion\partialviewing\fewlarge\high\fewlarge_partialViewing_high_tree6.png,mask_img/000000022142.png,experiment,p,p,334.81108069999027
V3,22,21,Female,Right,62,Block 1,0.6161136000009719,0.05,true,firehydrant,firehydrant,occlusion,low,mask,partial viewing,few large,Stimulus\all_stim\occlusion\partialviewing\fewlarge\low\fewlarge_partialViewing_low_firehydrant3.png,mask_img/000000028518.png,experiment,q,q,336.1041888000036
V3,22,21,Female,Right,63,Block 1,0.9668554000090808,0.1,true,building,building,occlusion,control,mask,partial viewing,few large,Stimulus\all_stim\occlusion\partialviewing\fewlarge\control\fewlarge_partialViewing_control_building5.png,mask_img/000000004642.png,experiment,i,i,338.16992489999393
V3,22,21,Female,Right,64,Block 1,1.5714014999975916,0.1,true,bird,bird,occlusion,low,mask,partial viewing,many small,Stimulus\all_stim\occlusion\partialviewing\manysmall\low\manysmall_partialViewing_low_bird7.png,mask_img/000000056036.png,experiment,o,o,340.63462319999235
V3,22,21,Female,Right,65,Block 1,2.248023000021931,0.025,true,bus,bus,occlusion,high,mask,partial viewing,many small,Stimulus\all_stim\occlusion\partialviewing\manysmall\high\manysmall_partialViewing_high_bus7.png,mask_img/000000047471.png,experiment,r,r,343.882111599989
V3,22,21,Female,Right,66,Block 1,2.1031790999986697,0.1,true,firehydrant,firehydrant,occlusion,high,mask,partial viewing,many small,Stimulus\all_stim\occlusion\partialviewing\manysmall\high\manysmall_partialViewing_high_firehydrant5.png,mask_img/000000050496.png,experiment,q,q,347.0656108999974
V3,22,21,Female,Right,67,Block 1,0.9534354999777861,0.05,true,person,person,occlusion,high,mask,partial viewing,few large,Stimulus\all_stim\occlusion\partialviewing\fewlarge\high\fewlarge_partialViewing_high_person4.png,mask_img/000000020202.png,experiment,e,e,348.7377337999933
V3,22,21,Female,Right,68,Block 1,0.7734349000093061,0.1,true,bus,bus,occlusion,high,mask,partial viewing,few large,Stimulus\all_stim\occlusion\partialviewing\fewlarge\high\fewlarge_partialViewing_high_bus9.png,mask_img/000000016764.png,experiment,r,r,350.30664900000556
V3,22,21,Female,Right,69,Block 1,0.8476078000094276,0.05,true,banana,banana,occlusion,control,mask,partial viewing,many small,Stimulus\all_stim\occlusion\partialviewing\manysmall\control\manysmall_partialViewing_control_banana5.png,mask_img/000000033669.png,experiment,w,w,351.9936127999972
V3,22,21,Female,Right,70,Block 1,0.5549075999879278,0.025,true,firehydrant,firehydrant,occlusion,control,mask,partial viewing,few large,Stimulus\all_stim\occlusion\partialviewing\fewlarge\control\fewlarge_partialViewing_control_firehydrant2.png,mask_img/000000007934.png,experiment,q,q,353.4601391000033
V3,22,21,Female,Right,71,Block 1,0.6770222000195645,0.025,true,tree,tree,occlusion,low,mask,partial viewing,few large,Stimulus\all_stim\occlusion\partialviewing\fewlarge\low\fewlarge_partialViewing_low_tree7.png,mask_img/000000032906.png,experiment,p,p,354.8657467000012
V3,22,21,Female,Right,72,Block 1,0.5788719000120182,0.025,true,tree,tree,occlusion,control,mask,partial viewing,few large,Stimulus\all_stim\occlusion\partialviewing\fewlarge\control\fewlarge_partialViewing_control_tree5.png,mask_img/000000010991.png,experiment,p,p,356.465875599999
V3,22,21,Female,Right,73,Block 1,0.8487767000042368,0.05,true,banana,banana,occlusion,low,mask,partial viewing,many small,Stimulus\all_stim\occlusion\partialviewing\manysmall\low\manysmall_partialViewing_low_banana1.png,mask_img/000000054532.png,experiment,w,w,358.28371709998464
V3,22,21,Female,Right,74,Block 1,0.7818583000043873,0.05,true,bird,bird,occlusion,control,mask,partial viewing,many small,Stimulus\all_stim\occlusion\partialviewing\manysmall\control\manysmall_partialViewing_control_bird1.png,mask_img/000000034113.png,experiment,o,o,360.1375835999788
V3,22,21,Female,Right,75,Block 1,0.9596319999836851,0.1,true,person,person,occlusion,high,mask,partial viewing,few large,Stimulus\all_stim\occlusion\partialviewing\fewlarge\high\fewlarge_partialViewing_high_person9.png,mask_img/000000021003.png,experiment,e,e,361.801741400006
V3,22,21,Female,Right,76,Block 1,2.7613717999774963,0.05,true,cat,cat,occlusion,control,mask,partial viewing,many small,Stimulus\all_stim\occlusion\partialviewing\manysmall\control\manysmall_partialViewing_control_cat6.png,mask_img/000000038753.png,experiment,u,u,365.250358099991
V3,22,21,Female,Right,77,Block 1,0.7595605999813415,0.1,true,banana,banana,occlusion,control,mask,partial viewing,few large,Stimulus\all_stim\occlusion\partialviewing\fewlarge\control\fewlarge_partialViewing_control_banana9.png,mask_img/000000000731.png,experiment,w,w,366.85784889999195
V3,22,21,Female,Right,78,Block 1,0.7163884000037797,0.1,true,banana,banana,occlusion,low,mask,partial viewing,many small,Stimulus\all_stim\occlusion\partialviewing\manysmall\low\manysmall_partialViewing_low_banana5.png,mask_img/000000055388.png,experiment,w,w,368.7296701000014
V3,22,21,Female,Right,79,Block 1,0.9351613000035286,0.025,true,firehydrant,firehydrant,occlusion,high,mask,partial viewing,many small,Stimulus\all_stim\occlusion\partialviewing\manysmall\high\manysmall_partialViewing_high_firehydrant6.png,mask_img/000000050782.png,experiment,q,q,370.7455708000052
V3,22,21,Female,Right,80,Block 1,0.8232591999985743,0.025,true,banana,banana,occlusion,low,mask,partial viewing,many small,Stimulus\all_stim\occlusion\partialviewing\manysmall\low\manysmall_partialViewing_low_banana3.png,mask_img/000000054875.png,experiment,w,w,372.3776128999889
V3,22,21,Female,Right,81,Block 1,0.7154527999809943,0.025,true,banana,banana,occlusion,control,mask,partial viewing,few large,Stimulus\all_stim\occlusion\partialviewing\fewlarge\control\fewlarge_partialViewing_control_banana5.png,mask_img/000000000459.png,experiment,w,w,373.97757729998557
V3,22,21,Female,Right,82,Block 1,0.8646432999812532,0.025,false,person,firehydrant,occlusion,high,mask,partial viewing,few large,Stimulus\all_stim\occlusion\partialviewing\fewlarge\high\fewlarge_partialViewing_high_person10.png,mask_img/000000019927.png,experiment,q,e,375.6417098999955
V3,22,21,Female,Right,83,Block 1,0.6297867000102997,0.05,true,firehydrant,firehydrant,occlusion,control,mask,partial viewing,many small,Stimulus\all_stim\occlusion\partialviewing\manysmall\control\manysmall_partialViewing_control_firehydrant3.png,mask_img/000000039113.png,experiment,q,q,377.16947729999083
V3,22,21,Female,Right,84,Block 1,0.9494359999953303,0.025,true,tree,tree,occlusion,low,mask,partial viewing,few large,Stimulus\all_stim\occlusion\partialviewing\fewlarge\low\fewlarge_partialViewing_low_tree4.png,mask_img/000000032364.png,experiment,p,p,378.92953569997917
V3,22,21,Female,Right,85,Block 1,0.8264610999904107,0.025,true,bird,bird,occlusion,low,mask,partial viewing,few large,Stimulus\all_stim\occlusion\partialviewing\fewlarge\low\fewlarge_partialViewing_low_bird6.png,mask_img/000000024247.png,experiment,o,o,380.85039549999055
V3,22,21,Female,Right,86,Block 1,0.6589053999923635,0.05,true,banana,banana,occlusion,control,mask,partial viewing,few large,Stimulus\all_stim\occlusion\partialviewing\fewlarge\control\fewlarge_partialViewing_control_banana8.png,mask_img/000000000690.png,experiment,w,w,382.4360841999878
V3,22,21,Female,Right,87,Block 1,5.540321699983906,0.1,true,bird,bird,occlusion,low,mask,partial viewing,few large,Stimulus\all_stim\occlusion\partialviewing\fewlarge\low\fewlarge_partialViewing_low_bird1.png,mask_img/000000023984.png,experiment,o,o,389.002006900002
V3,22,21,Female,Right,88,Block 1,0.8344746000075247,0.05,true,firehydrant,firehydrant,occlusion,low,mask,partial viewing,few large,Stimulus\all_stim\occlusion\partialviewing\fewlarge\low\fewlarge_partialViewing_low_firehydrant4.png,mask_img/000000028671.png,experiment,q,q,390.7535563999845
V3,22,21,Female,Right,89,Block 1,0.688923200010322,0.05,true,bird,bird,occlusion,control,mask,partial viewing,few large,Stimulus\all_stim\occlusion\partialviewing\fewlarge\control\fewlarge_partialViewing_control_bird6.png,mask_img/000000002337.png,experiment,o,o,392.4177298999857
V3,22,21,Female,Right,90,Block 1,0.8700258000171743,0.1,true,building,building,occlusion,low,mask,partial viewing,many small,Stimulus\all_stim\occlusion\partialviewing\manysmall\low\manysmall_partialViewing_low_building2.png,mask_img/000000057551.png,experiment,i,i,394.2578479999793
V3,22,21,Female,Right,91,Block 1,0.7029786999919452,0.05,true,banana,banana,occlusion,low,mask,partial viewing,many small,Stimulus\all_stim\occlusion\partialviewing\manysmall\low\manysmall_partialViewing_low_banana5.png,mask_img/000000055388.png,experiment,w,w,395.6337588999886
V3,22,21,Female,Right,92,Block 1,1.3658649999997579,0.1,true,cat,cat,occlusion,high,mask,partial viewing,few large,Stimulus\all_stim\occlusion\partialviewing\fewlarge\high\fewlarge_partialViewing_high_cat8.png,mask_img/000000017791.png,experiment,u,u,397.761868600006
V3,22,21,Female,Right,93,Block 1,1.011449999990873,0.1,true,person,person,occlusion,high,mask,partial viewing,many small,Stimulus\all_stim\occlusion\partialviewing\manysmall\high\manysmall_partialViewing_high_person3.png,mask_img/000000051880.png,experiment,e,e,399.86576260000584
V3,22,21,Female,Right,94,Block 1,0.6256438999844249,0.05,true,person,person,occlusion,high,mask,partial viewing,few large,Stimulus\all_stim\occlusion\partialviewing\fewlarge\high\fewlarge_partialViewing_high_person6.png,mask_img/000000020392.png,experiment,e,e,401.4177132000041
V3,22,21,Female,Right,95,Block 1,0.5318548000068404,0.1,true,person,person,occlusion,low,mask,partial viewing,many small,Stimulus\all_stim\occlusion\partialviewing\manysmall\low\manysmall_partialViewing_low_person4.png,mask_img/000000062131.png,experiment,e,e,402.76186939998297
V3,22,21,Female,Right,96,Block 1,0.5977166999946348,0.05,true,firehydrant,firehydrant,occlusion,low,mask,partial viewing,few large,Stimulus\all_stim\occlusion\partialviewing\fewlarge\low\fewlarge_partialViewing_low_firehydrant6.png,mask_img/000000028842.png,experiment,q,q,404.2452468999836
V3,22,21,Female,Right,97,Block 1,1.0283797000010964,0.05,true,bird,bird,occlusion,high,mask,partial viewing,many small,Stimulus\all_stim\occlusion\partialviewing\manysmall\high\manysmall_partialViewing_high_bird2.png,mask_img/000000044117.png,experiment,o,o,406.13154440000653
V3,22,21,Female,Right,98,Block 1,0.704439299996011,0.1,true,building,building,occlusion,control,mask,partial viewing,many small,Stimulus\all_stim\occlusion\partialviewing\manysmall\control\manysmall_partialViewing_control_building9.png,mask_img/000000036226.png,experiment,i,i,407.57784829998855
V3,22,21,Female,Right,99,Block 1,0.5657564000284765,0.1,true,building,building,occlusion,control,mask,partial viewing,few large,Stimulus\all_stim\occlusion\partialviewing\fewlarge\control\fewlarge_partialViewing_control_building10.png,mask_img/000000003225.png,experiment,i,i,409.0291985999793
V3,22,21,Female,Right,100,Block 1,4.17367099999683,0.025,false,banana,bus,occlusion,high,mask,partial viewing,few large,Stimulus\all_stim\occlusion\partialviewing\fewlarge\high\fewlarge_partialViewing_high_banana6.png,mask_img/000000012548.png,experiment,r,w,413.8839289000025
V3,22,21,Female,Right,101,Block 1,0.7065291999897454,0.025,true,bus,bus,occlusion,control,mask,partial viewing,few large,Stimulus\all_stim\occlusion\partialviewing\fewlarge\control\fewlarge_partialViewing_control_bus2.png,mask_img/000000005359.png,experiment,r,r,415.6416313999798
V3,22,21,Female,Right,102,Block 1,1.1962933999893721,0.025,true,cat,cat,occlusion,control,mask,partial viewing,few large,Stimulus\all_stim\occlusion\partialviewing\fewlarge\control\fewlarge_partialViewing_control_cat1.png,mask_img/000000006437.png,experiment,u,u,417.56954470000346
V3,22,21,Female,Right,103,Block 1,0.6130823999992572,0.025,true,tree,tree,occlusion,low,mask,partial viewing,few large,Stimulus\all_stim\occlusion\partialviewing\fewlarge\low\fewlarge_partialViewing_low_tree1.png,mask_img/000000031053.png,experiment,p,p,419.1216774999921
V3,22,21,Female,Right,104,Block 1,0.6506943999847863,0.025,true,firehydrant,firehydrant,occlusion,low,mask,partial viewing,few large,Stimulus\all_stim\occlusion\partialviewing\fewlarge\low\fewlarge_partialViewing_low_firehydrant10.png,mask_img/000000028367.png,experiment,q,q,420.71719649998704
V3,22,21,Female,Right,105,Block 1,1.8786892999778502,0.025,true,cat,cat,occlusion,control,mask,partial viewing,many small,Stimulus\all_stim\occlusion\partialviewing\manysmall\control\manysmall_partialViewing_control_cat9.png,mask_img/000000038862.png,experiment,u,u,423.4658372999984
V3,22,21,Female,Right,106,Block 1,3.1079829999944195,0.025,false,banana,tree,occlusion,high,mask,partial viewing,many small,Stimulus\all_stim\occlusion\partialviewing\manysmall\high\manysmall_partialViewing_high_banana4.png,mask_img/000000042499.png,experiment,p,w,427.53772989998106
V3,22,21,Female,Right,107,Block 1,1.4374574999965262,0.05,true,bus,bus,occlusion,high,mask,partial viewing,many small,Stimulus\all_stim\occlusion\partialviewing\manysmall\high\manysmall_partialViewing_high_bus4.png,mask_img/000000047316.png,experiment,r,r,430.0256933000055
V3,22,21,Female,Right,108,Block 1,0.8695832999947015,0.025,true,building,building,occlusion,high,mask,partial viewing,few large,Stimulus\all_stim\occlusion\partialviewing\fewlarge\high\fewlarge_partialViewing_high_building2.png,mask_img/000000014472.png,experiment,i,i,431.7857793000003
V3,22,21,Female,Right,109,Block 1,0.6204543000203557,0.1,true,firehydrant,firehydrant,occlusion,high,mask,partial viewing,few large,Stimulus\all_stim\occlusion\partialviewing\fewlarge\high\fewlarge_partialViewing_high_firehydrant7.png,mask_img/000000019463.png,experiment,q,q,433.506258599984
V3,22,21,Female,Right,110,Block 1,0.8205993000010494,0.025,true,building,building,occlusion,control,mask,partial viewing,many small,Stimulus\all_stim\occlusion\partialviewing\manysmall\control\manysmall_partialViewing_control_building1.png,mask_img/000000035818.png,experiment,i,i,435.3955561000039
V3,22,21,Female,Right,111,Block 1,0.6404704000160564,0.1,true,tree,tree,occlusion,control,mask,partial viewing,few large,Stimulus\all_stim\occlusion\partialviewing\fewlarge\control\fewlarge_partialViewing_control_tree3.png,mask_img/000000010566.png,experiment,p,p,436.8746989000065
V3,22,21,Female,Right,112,Block 1,2.110987299995031,0.025,true,building,building,occlusion,high,mask,partial viewing,few large,Stimulus\all_stim\occlusion\partialviewing\fewlarge\high\fewlarge_partialViewing_high_building5.png,mask_img/000000014759.png,experiment,i,i,439.67410609999206
V3,22,21,Female,Right,113,Block 1,1.2805391000001691,0.1,true,banana,banana,occlusion,high,mask,partial viewing,few large,Stimulus\all_stim\occlusion\partialviewing\fewlarge\high\fewlarge_partialViewing_high_banana7.png,mask_img/000000012567.png,experiment,w,w,442.025856799999
V3,22,21,Female,Right,114,Block 1,0.6401246000023093,0.05,true,banana,banana,occlusion,control,mask,partial viewing,few large,Stimulus\all_stim\occlusion\partialviewing\fewlarge\control\fewlarge_partialViewing_control_banana4.png,mask_img/000000000438.png,experiment,w,w,443.7217195999983
V3,22,21,Female,Right,115,Block 1,1.0650512000138406,0.05,true,bus,bus,occlusion,low,mask,partial viewing,many small,Stimulus\all_stim\occlusion\partialviewing\manysmall\low\manysmall_partialViewing_low_bus10.png,mask_img/000000058595.png,experiment,r,r,445.52973839998594
V3,22,21,Female,Right,116,Block 1,0.5262089000025298,0.025,true,bus,bus,occlusion,control,mask,partial viewing,many small,Stimulus\all_stim\occlusion\partialviewing\manysmall\control\manysmall_partialViewing_control_bus10.png,mask_img/000000036482.png,experiment,r,r,446.9451007999887
V3,22,21,Female,Right,117,Block 1,1.2069545999984257,0.05,true,bird,bird,occlusion,high,mask,partial viewing,few large,Stimulus\all_stim\occlusion\partialviewing\fewlarge\high\fewlarge_partialViewing_high_bird5.png,mask_img/000000013914.png,experiment,o,o,449.25783439999213
V3,22,21,Female,Right,118,Block 1,1.2998538999818265,0.05,true,cat,cat,occlusion,low,mask,partial viewing,few large,Stimulus\all_stim\occlusion\partialviewing\fewlarge\low\fewlarge_partialViewing_low_cat3.png,mask_img/000000027556.png,experiment,u,u,451.6195755999943
V3,22,21,Female,Right,119,Block 1,0.8426219000248238,0.025,true,banana,banana,occlusion,low,mask,partial viewing,few large,Stimulus\all_stim\occlusion\partialviewing\fewlarge\low\fewlarge_partialViewing_low_banana8.png,mask_img/000000023656.png,experiment,w,w,453.47386800000095
V3,22,21,Female,Right,120,Block 1,0.7518152999982703,0.025,true,bus,bus,occlusion,high,mask,partial viewing,few large,Stimulus\all_stim\occlusion\partialviewing\fewlarge\high\fewlarge_partialViewing_high_bus2.png,mask_img/000000015862.png,experiment,r,r,455.0257083000033
V3,22,21,Female,Right,121,Block 1,0.7626951000129338,0.05,true,bird,bird,occlusion,control,mask,partial viewing,many small,Stimulus\all_stim\occlusion\partialviewing\manysmall\control\manysmall_partialViewing_control_bird7.png,mask_img/000000035132.png,experiment,o,o,456.75362259999383
V3,22,21,Female,Right,122,Block 1,1.3425283999822568,0.05,true,cat,cat,occlusion,high,mask,partial viewing,many small,Stimulus\all_stim\occlusion\partialviewing\manysmall\high\manysmall_partialViewing_high_cat10.png,mask_img/000000048929.png,experiment,u,u,458.8418948999897
V3,22,21,Female,Right,123,Block 1,1.1890344000130426,0.1,true,person,person,occlusion,control,mask,partial viewing,few large,Stimulus\all_stim\occlusion\partialviewing\fewlarge\control\fewlarge_partialViewing_control_person2.png,mask_img/000000008787.png,experiment,e,e,460.77790630000527
V3,22,21,Female,Right,124,Block 1,0.7769253000151366,0.025,true,person,person,occlusion,control,mask,partial viewing,few large,Stimulus\all_stim\occlusion\partialviewing\fewlarge\control\fewlarge_partialViewing_control_person7.png,mask_img/000000009648.png,experiment,e,e,462.6896255000029
V3,22,21,Female,Right,125,Block 1,0.732045399985509,0.1,true,banana,banana,occlusion,high,mask,partial viewing,few large,Stimulus\all_stim\occlusion\partialviewing\fewlarge\high\fewlarge_partialViewing_high_banana8.png,mask_img/000000012733.png,experiment,w,w,464.4264176999859
V3,22,21,Female,Right,126,Block 1,0.626084899995476,0.1,true,cat,cat,occlusion,high,mask,partial viewing,few large,Stimulus\all_stim\occlusion\partialviewing\fewlarge\high\fewlarge_partialViewing_high_cat4.png,mask_img/000000017364.png,experiment,u,u,465.8346582999802
V3,22,21,Female,Right,127,Block 1,0.9052147000038531,0.025,true,bus,bus,occlusion,control,mask,partial viewing,many small,Stimulus\all_stim\occlusion\partialviewing\manysmall\control\manysmall_partialViewing_control_bus4.png,mask_img/000000036966.png,experiment,r,r,467.41808010000386
V3,22,21,Female,Right,128,Block 1,0.9757749999989755,0.1,true,bus,bus,occlusion,high,mask,partial viewing,many small,Stimulus\all_stim\occlusion\partialviewing\manysmall\high\manysmall_partialViewing_high_bus3.png,mask_img/000000047229.png,experiment,r,r,469.2577018000011
V3,22,21,Female,Right,129,Block 1,0.45181729999603704,0.025,true,bus,bus,occlusion,high,mask,partial viewing,few large,Stimulus\all_stim\occlusion\partialviewing\fewlarge\high\fewlarge_partialViewing_high_bus8.png,mask_img/000000016715.png,experiment,r,r,470.4684744999977
V3,22,21,Female,Right,130,Block 1,0.7190780999953859,0.1,true,person,person,occlusion,control,mask,partial viewing,few large,Stimulus\all_stim\occlusion\partialviewing\fewlarge\control\fewlarge_partialViewing_control_person7.png,mask_img/000000009648.png,experiment,e,e,472.2576954999822
V3,22,21,Female,Right,131,Block 1,0.6620638000022154,0.025,true,firehydrant,firehydrant,occlusion,high,mask,partial viewing,few large,Stimulus\all_stim\occlusion\partialviewing\fewlarge\high\fewlarge_partialViewing_high_firehydrant8.png,mask_img/000000019528.png,experiment,q,q,473.8096228999784
V3,22,21,Female,Right,132,Block 1,0.7268126999842934,0.1,true,person,person,occlusion,low,mask,partial viewing,many small,Stimulus\all_stim\occlusion\partialviewing\manysmall\low\manysmall_partialViewing_low_person5.png,mask_img/000000062193.png,experiment,e,e,475.5936512000044
V3,22,21,Female,Right,133,Block 1,1.1056004999845754,0.1,true,bus,bus,occlusion,high,mask,partial viewing,many small,Stimulus\all_stim\occlusion\partialviewing\manysmall\high\manysmall_partialViewing_high_bus4.png,mask_img/000000047316.png,experiment,r,r,477.39375289998134
V3,22,21,Female,Right,134,Block 1,0.9140100000076927,0.025,true,bus,bus,occlusion,high,mask,partial viewing,few large,Stimulus\all_stim\occlusion\partialviewing\fewlarge\high\fewlarge_partialViewing_high_bus3.png,mask_img/000000015908.png,experiment,r,r,479.4416363000055
V3,22,21,Female,Right,135,Block 1,0.6859677000029478,0.1,true,cat,cat,occlusion,control,mask,partial viewing,few large,Stimulus\all_stim\occlusion\partialviewing\fewlarge\control\fewlarge_partialViewing_control_cat6.png,mask_img/000000007179.png,experiment,u,u,480.8182297000021
V3,22,21,Female,Right,136,Block 1,1.698773699987214,0.025,true,bird,bird,occlusion,low,mask,partial viewing,many small,Stimulus\all_stim\occlusion\partialviewing\manysmall\low\manysmall_partialViewing_low_bird8.png,mask_img/000000056137.png,experiment,o,o,483.34591979999095
V3,22,21,Female,Right,137,Block 1,0.7990362000127789,0.1,true,building,building,occlusion,high,mask,partial viewing,many small,Stimulus\all_stim\occlusion\partialviewing\manysmall\high\manysmall_partialViewing_high_building10.png,mask_img/000000044989.png,experiment,i,i,485.26581499999156
V3,22,21,Female,Right,138,Block 1,1.9645156000042334,0.1,true,cat,cat,occlusion,low,mask,partial viewing,few large,Stimulus\all_stim\occlusion\partialviewing\fewlarge\low\fewlarge_partialViewing_low_cat9.png,mask_img/000000028231.png,experiment,u,u,488.3058599999931
V3,22,21,Female,Right,139,Block 1,1.0032532000041101,0.1,true,person,person,occlusion,high,mask,partial viewing,few large,Stimulus\all_stim\occlusion\partialviewing\fewlarge\high\fewlarge_partialViewing_high_person1.png,mask_img/000000019759.png,experiment,e,e,490.14578960000654
V3,22,21,Female,Right,140,Block 1,1.4351398999860976,0.025,false,firehydrant,cat,occlusion,high,mask,partial viewing,few large,Stimulus\all_stim\occlusion\partialviewing\fewlarge\high\fewlarge_partialViewing_high_firehydrant5.png,mask_img/000000018982.png,experiment,u,q,492.44972549998784
V3,22,21,Female,Right,141,Block 1,1.1009115999913774,0.05,true,bus,bus,occlusion,high,mask,partial viewing,few large,Stimulus\all_stim\occlusion\partialviewing\fewlarge\high\fewlarge_partialViewing_high_bus1.png,mask_img/000000015645.png,experiment,r,r,494.4417065999878
V3,22,21,Female,Right,142,Block 1,0.6179484000022057,0.025,true,bus,bus,occlusion,control,mask,partial viewing,few large,Stimulus\all_stim\occlusion\partialviewing\fewlarge\control\fewlarge_partialViewing_control_bus10.png,mask_img/000000005282.png,experiment,r,r,495.9795699999959
V3,22,21,Female,Right,143,Block 1,0.7429649000114296,0.1,true,building,building,occlusion,low,mask,partial viewing,many small,Stimulus\all_stim\occlusion\partialviewing\manysmall\low\manysmall_partialViewing_low_building10.png,mask_img/000000057068.png,experiment,i,i,497.513688099978
V3,22,21,Female,Right,144,Block 1,1.142063400009647,0.05,true,bird,bird,occlusion,low,mask,partial viewing,many small,Stimulus\all_stim\occlusion\partialviewing\manysmall\low\manysmall_partialViewing_low_bird2.png,mask_img/000000055737.png,experiment,o,o,507.46595789998537
V3,22,21,Female,Right,145,Block 2,0.5966142000106629,0.1,true,bird,bird,occlusion,low,mask,partial viewing,few large,Stimulus\all_stim\occlusion\partialviewing\fewlarge\low\fewlarge_partialViewing_low_bird5.png,mask_img/000000024239.png,experiment,o,o,508.751099599991
V3,22,21,Female,Right,146,Block 2,1.2021842999965884,0.05,true,building,building,occlusion,low,mask,partial viewing,few large,Stimulus\all_stim\occlusion\partialviewing\fewlarge\low\fewlarge_partialViewing_low_building4.png,mask_img/000000024912.png,experiment,i,i,511.00970470000175
V3,22,21,Female,Right,147,Block 2,1.3649299000098836,0.1,true,banana,banana,occlusion,high,mask,partial viewing,many small,Stimulus\all_stim\occlusion\partialviewing\manysmall\high\manysmall_partialViewing_high_banana4.png,mask_img/000000042499.png,experiment,w,w,513.2337665999949
V3,22,21,Female,Right,148,Block 2,1.0599222000164445,0.05,true,bus,bus,occlusion,control,mask,partial viewing,many small,Stimulus\all_stim\occlusion\partialviewing\manysmall\control\manysmall_partialViewing_control_bus5.png,mask_img/000000037140.png,experiment,r,r,515.353898500005
V3,22,21,Female,Right,149,Block 2,1.4896840000001248,0.025,true,bird,bird,occlusion,high,mask,partial viewing,many small,Stimulus\all_stim\occlusion\partialviewing\manysmall\high\manysmall_partialViewing_high_bird5.png,mask_img/000000044437.png,experiment,o,o,517.6899663999793
V3,22,21,Female,Right,150,Block 2,1.456355500005884,0.025,false,building,cat,occlusion,high,mask,partial viewing,many small,Stimulus\all_stim\occlusion\partialviewing\manysmall\high\manysmall_partialViewing_high_building2.png,mask_img/000000045306.png,experiment,u,i,520.2336518999946
V3,22,21,Female,Right,151,Block 2,0.9529243000142742,0.025,true,bus,bus,occlusion,low,mask,partial viewing,many small,Stimulus\all_stim\occlusion\partialviewing\manysmall\low\manysmall_partialViewing_low_bus9.png,mask_img/000000058910.png,experiment,r,r,522.0176349999965
V3,22,21,Female,Right,152,Block 2,0.8554338000249118,0.05,true,banana,banana,occlusion,low,mask,partial viewing,many small,Stimulus\all_stim\occlusion\partialviewing\manysmall\low\manysmall_partialViewing_low_banana8.png,mask_img/000000055630.png,experiment,w,w,523.9458236999926
V3,22,21,Female,Right,153,Block 2,0.8700466000009328,0.1,true,cat,cat,occlusion,low,mask,partial viewing,few large,Stimulus\all_stim\occlusion\partialviewing\fewlarge\low\fewlarge_partialViewing_low_cat2.png,mask_img/000000027371.png,experiment,u,u,525.8976312000013
V3,22,21,Female,Right,154,Block 2,0.6185121999878902,0.1,true,firehydrant,firehydrant,occlusion,high,mask,partial viewing,many small,Stimulus\all_stim\occlusion\partialviewing\manysmall\high\manysmall_partialViewing_high_firehydrant10.png,mask_img/000000050148.png,experiment,q,q,527.3412958999979
V3,22,21,Female,Right,155,Block 2,0.9829203000117559,0.1,false,bird,cat,occlusion,high,mask,partial viewing,many small,Stimulus\all_stim\occlusion\partialviewing\manysmall\high\manysmall_partialViewing_high_bird4.png,mask_img/000000044136.png,experiment,u,o,529.3379713000031
V3,22,21,Female,Right,156,Block 2,0.641723999986425,0.05,true,bus,bus,occlusion,control,mask,partial viewing,few large,Stimulus\all_stim\occlusion\partialviewing\fewlarge\control\fewlarge_partialViewing_control_bus6.png,mask_img/000000005862.png,experiment,r,r,530.785715999984
V3,22,21,Female,Right,157,Block 2,1.505151899997145,0.025,true,banana,banana,occlusion,high,mask,partial viewing,few large,Stimulus\all_stim\occlusion\partialviewing\fewlarge\high\fewlarge_partialViewing_high_banana9.png,mask_img/000000012999.png,experiment,w,w,533.1141524999985
V3,22,21,Female,Right,158,Block 2,0.7319585000223015,0.025,true,banana,banana,occlusion,control,mask,partial viewing,many small,Stimulus\all_stim\occlusion\partialviewing\manysmall\control\manysmall_partialViewing_control_banana5.png,mask_img/000000033669.png,experiment,w,w,534.6996308999951
V3,22,21,Female,Right,159,Block 2,1.4146354999975301,0.025,false,tree,banana,occlusion,low,mask,partial viewing,many small,Stimulus\all_stim\occlusion\partialviewing\manysmall\low\manysmall_partialViewing_low_tree7.png,mask_img/000000063754.png,experiment,w,p,536.9216221999959
V3,22,21,Female,Right,160,Block 2,1.161605100001907,0.05,true,bus,bus,occlusion,low,mask,partial viewing,many small,Stimulus\all_stim\occlusion\partialviewing\manysmall\low\manysmall_partialViewing_low_bus3.png,mask_img/000000058647.png,experiment,r,r,538.8738911999972
V3,22,21,Female,Right,161,Block 2,0.682815500011202,0.025,true,person,person,occlusion,high,mask,partial viewing,few large,Stimulus\all_stim\occlusion\partialviewing\fewlarge\high\fewlarge_partialViewing_high_person6.png,mask_img/000000020392.png,experiment,e,e,540.5540427999804
V3,22,21,Female,Right,162,Block 2,0.6929898000089452,0.1,true,cat,cat,occlusion,control,mask,partial viewing,few large,Stimulus\all_stim\occlusion\partialviewing\fewlarge\control\fewlarge_partialViewing_control_cat4.png,mask_img/000000006842.png,experiment,u,u,542.1136723999807
V3,22,21,Female,Right,163,Block 2,0.6240832000039518,0.1,true,cat,cat,occlusion,low,mask,partial viewing,many small,Stimulus\all_stim\occlusion\partialviewing\manysmall\low\manysmall_partialViewing_low_cat3.png,mask_img/000000059442.png,experiment,u,u,543.812088000006
V3,22,21,Female,Right,164,Block 2,0.5100108000042383,0.1,true,cat,cat,occlusion,control,mask,partial viewing,many small,Stimulus\all_stim\occlusion\partialviewing\manysmall\control\manysmall_partialViewing_control_cat5.png,mask_img/000000038601.png,experiment,u,u,545.2626989999844
V3,22,21,Female,Right,165,Block 2,1.7096079000039026,0.05,true,building,building,occlusion,high,mask,partial viewing,few large,Stimulus\all_stim\occlusion\partialviewing\fewlarge\high\fewlarge_partialViewing_high_building7.png,mask_img/000000015155.png,experiment,i,i,548.1136956999835
V3,22,21,Female,Right,166,Block 2,0.8638799999898765,0.025,true,banana,banana,occlusion,low,mask,partial viewing,many small,Stimulus\all_stim\occlusion\partialviewing\manysmall\low\manysmall_partialViewing_low_banana5.png,mask_img/000000055388.png,experiment,w,w,549.9696353999898
V3,22,21,Female,Right,167,Block 2,0.7375990000145976,0.05,true,firehydrant,firehydrant,occlusion,control,mask,partial viewing,few large,Stimulus\all_stim\occlusion\partialviewing\fewlarge\control\fewlarge_partialViewing_control_firehydrant4.png,mask_img/000000007952.png,experiment,q,q,551.4496418999915
V3,22,21,Female,Right,168,Block 2,0.5521984999941196,0.025,true,tree,tree,occlusion,high,mask,partial viewing,few large,Stimulus\all_stim\occlusion\partialviewing\fewlarge\high\fewlarge_partialViewing_high_tree4.png,mask_img/000000021981.png,experiment,p,p,552.8156819999858
V3,22,21,Female,Right,169,Block 2,0.7574155999755021,0.025,true,firehydrant,firehydrant,occlusion,low,mask,partial viewing,few large,Stimulus\all_stim\occlusion\partialviewing\fewlarge\low\fewlarge_partialViewing_low_firehydrant8.png,mask_img/000000028988.png,experiment,q,q,554.4576362999796
V3,22,21,Female,Right,170,Block 2,0.5930071000184398,0.025,true,tree,tree,occlusion,low,mask,partial viewing,few large,Stimulus\all_stim\occlusion\partialviewing\fewlarge\low\fewlarge_partialViewing_low_tree5.png,mask_img/000000032403.png,experiment,p,p,556.0897805999848
V3,22,21,Female,Right,171,Block 2,0.6826297999941744,0.05,true,firehydrant,firehydrant,occlusion,low,mask,partial viewing,many small,Stimulus\all_stim\occlusion\partialviewing\manysmall\low\manysmall_partialViewing_low_firehydrant6.png,mask_img/000000060647.png,experiment,q,q,557.649735199986
V3,22,21,Female,Right,172,Block 2,0.6925534000038169,0.1,true,building,building,occlusion,high,mask,partial viewing,few large,Stimulus\all_stim\occlusion\partialviewing\fewlarge\high\fewlarge_partialViewing_high_building1.png,mask_img/000000014335.png,experiment,i,i,559.3457944999973
V3,22,21,Female,Right,173,Block 2,0.7652964000008069,0.1,true,person,person,occlusion,control,mask,partial viewing,many small,Stimulus\all_stim\occlusion\partialviewing\manysmall\control\manysmall_partialViewing_control_person9.png,mask_img/000000040771.png,experiment,e,e,561.0498300000036
V3,22,21,Female,Right,174,Block 2,1.465425000002142,0.05,false,bird,cat,occlusion,low,mask,partial viewing,many small,Stimulus\all_stim\occlusion\partialviewing\manysmall\low\manysmall_partialViewing_low_bird8.png,mask_img/000000056137.png,experiment,u,o,563.5858562999929
V3,22,21,Female,Right,175,Block 2,1.3841145999904256,0.1,true,bird,bird,occlusion,high,mask,partial viewing,many small,Stimulus\all_stim\occlusion\partialviewing\manysmall\high\manysmall_partialViewing_high_bird10.png,mask_img/000000044065.png,experiment,o,o,566.098298500001
V3,22,21,Female,Right,176,Block 2,0.9285914000065532,0.1,true,bird,bird,occlusion,high,mask,partial viewing,few large,Stimulus\all_stim\occlusion\partialviewing\fewlarge\high\fewlarge_partialViewing_high_bird8.png,mask_img/000000014168.png,experiment,o,o,568.001790099981
V3,22,21,Female,Right,177,Block 2,0.723872400005348,0.025,true,building,building,occlusion,control,mask,partial viewing,many small,Stimulus\all_stim\occlusion\partialviewing\manysmall\control\manysmall_partialViewing_control_building7.png,mask_img/000000036029.png,experiment,i,i,569.5217350999883
V3,22,21,Female,Right,178,Block 2,0.8288176000060048,0.025,true,bus,bus,occlusion,high,mask,partial viewing,many small,Stimulus\all_stim\occlusion\partialviewing\manysmall\high\manysmall_partialViewing_high_bus10.png,mask_img/000000046805.png,experiment,r,r,571.1136937999981
V3,22,21,Female,Right,179,Block 2,0.7993891999940388,0.05,true,cat,cat,occlusion,high,mask,partial viewing,few large,Stimulus\all_stim\occlusion\partialviewing\fewlarge\high\fewlarge_partialViewing_high_cat4.png,mask_img/000000017364.png,experiment,u,u,572.7776756999956
V3,22,21,Female,Right,180,Block 2,0.8363423999981023,0.05,true,building,building,occlusion,low,mask,partial viewing,few large,Stimulus\all_stim\occlusion\partialviewing\fewlarge\low\fewlarge_partialViewing_low_building7.png,mask_img/000000025192.png,experiment,i,i,574.4016639000038
V3,22,21,Female,Right,181,Block 2,0.5059552000020631,0.025,true,building,building,occlusion,control,mask,partial viewing,many small,Stimulus\all_stim\occlusion\partialviewing\manysmall\control\manysmall_partialViewing_control_building5.png,mask_img/000000036004.png,experiment,i,i,575.6423115999787
V3,22,21,Female,Right,182,Block 2,0.533743299980415,0.05,true,cat,cat,occlusion,control,mask,partial viewing,few large,Stimulus\all_stim\occlusion\partialviewing\fewlarge\control\fewlarge_partialViewing_control_cat1.png,mask_img/000000006437.png,experiment,u,u,576.8766724999878
V3,22,21,Female,Right,183,Block 2,1.4940194999799132,0.025,false,bird,cat,occlusion,low,mask,partial viewing,many small,Stimulus\all_stim\occlusion\partialviewing\manysmall\low\manysmall_partialViewing_low_bird10.png,mask_img/000000055733.png,experiment,u,o,579.4907167000056
V3,22,21,Female,Right,184,Block 2,0.687756300001638,0.1,true,firehydrant,firehydrant,occlusion,low,mask,partial viewing,many small,Stimulus\all_stim\occlusion\partialviewing\manysmall\low\manysmall_partialViewing_low_firehydrant8.png,mask_img/000000061512.png,experiment,q,q,580.9938513999805
V3,22,21,Female,Right,185,Block 2,0.649470799980918,0.025,true,tree,tree,occlusion,control,mask,partial viewing,many small,Stimulus\all_stim\occlusion\partialviewing\manysmall\control\manysmall_partialViewing_control_tree7.png,mask_img/000000041434.png,experiment,p,p,582.3376113999984
V3,22,21,Female,Right,186,Block 2,1.0615724999806844,0.05,true,cat,cat,occlusion,high,mask,partial viewing,few large,Stimulus\all_stim\occlusion\partialviewing\fewlarge\high\fewlarge_partialViewing_high_cat5.png,mask_img/000000017409.png,experiment,u,u,584.3397131999955
V3,22,21,Female,Right,187,Block 2,1.4910940999980085,0.05,false,cat,bird,occlusion,high,mask,partial viewing,many small,Stimulus\all_stim\occlusion\partialviewing\manysmall\high\manysmall_partialViewing_high_cat8.png,mask_img/000000049763.png,experiment,o,u,586.5377616999904
V3,22,21,Female,Right,188,Block 2,0.6810312999878079,0.025,true,firehydrant,firehydrant,occlusion,low,mask,partial viewing,many small,Stimulus\all_stim\occlusion\partialviewing\manysmall\low\manysmall_partialViewing_low_firehydrant5.png,mask_img/000000060623.png,experiment,q,q,588.2016779999831
V3,22,21,Female,Right,189,Block 2,0.5759062999859452,0.05,true,cat,cat,occlusion,control,mask,partial viewing,many small,Stimulus\all_stim\occlusion\partialviewing\manysmall\control\manysmall_partialViewing_control_cat1.png,mask_img/000000038177.png,experiment,u,u,589.7292798999988
V3,22,21,Female,Right,190,Block 2,0.6294951000018045,0.05,true,cat,cat,occlusion,high,mask,partial viewing,few large,Stimulus\all_stim\occlusion\partialviewing\fewlarge\high\fewlarge_partialViewing_high_cat3.png,mask_img/000000017356.png,experiment,u,u,591.2496329999994
V3,22,21,Female,Right,191,Block 2,0.89716550000594,0.05,true,bus,bus,occlusion,high,mask,partial viewing,many small,Stimulus\all_stim\occlusion\partialviewing\manysmall\high\manysmall_partialViewing_high_bus1.png,mask_img/000000046676.png,experiment,r,r,593.257727499993
V3,22,21,Female,Right,192,Block 2,1.9855366999981925,0.025,true,banana,banana,occlusion,high,mask,partial viewing,few large,Stimulus\all_stim\occlusion\partialviewing\fewlarge\high\fewlarge_partialViewing_high_banana3.png,mask_img/000000012313.png,experiment,w,w,596.1857615000044
V3,22,21,Female,Right,193,Block 2,0.6980881000054069,0.025,true,firehydrant,firehydrant,occlusion,control,mask,partial viewing,many small,Stimulus\all_stim\occlusion\partialviewing\manysmall\control\manysmall_partialViewing_control_firehydrant8.png,mask_img/000000039553.png,experiment,q,q,597.9139507999935
V3,22,21,Female,Right,194,Block 2,1.40095549999387,0.1,true,bird,bird,occlusion,high,mask,partial viewing,many small,Stimulus\all_stim\occlusion\partialviewing\manysmall\high\manysmall_partialViewing_high_bird6.png,mask_img/000000044523.png,experiment,o,o,600.2099925999937
V3,22,21,Female,Right,195,Block 2,1.0143005999852903,0.025,true,banana,banana,occlusion,low,mask,partial viewing,few large,Stimulus\all_stim\occlusion\partialviewing\fewlarge\low\fewlarge_partialViewing_low_banana7.png,mask_img/000000023511.png,experiment,w,w,602.0897091999941
V3,22,21,Female,Right,196,Block 2,0.5969060999923386,0.05,true,banana,banana,occlusion,control,mask,partial viewing,many small,Stimulus\all_stim\occlusion\partialviewing\manysmall\control\manysmall_partialViewing_control_banana2.png,mask_img/000000033126.png,experiment,w,w,603.4359740999935
V3,22,21,Female,Right,197,Block 2,1.0616120000195224,0.025,false,person,cat,occlusion,high,mask,partial viewing,many small,Stimulus\all_stim\occlusion\partialviewing\manysmall\high\manysmall_partialViewing_high_person2.png,mask_img/000000051461.png,experiment,u,e,605.4816370999906
V3,22,21,Female,Right,198,Block 2,0.7030025999993086,0.025,true,banana,banana,occlusion,low,mask,partial viewing,many small,Stimulus\all_stim\occlusion\partialviewing\manysmall\low\manysmall_partialViewing_low_banana4.png,mask_img/000000055202.png,experiment,w,w,606.8497320000024
V3,22,21,Female,Right,199,Block 2,0.6950531000038609,0.1,true,firehydrant,firehydrant,occlusion,high,mask,partial viewing,many small,Stimulus\all_stim\occlusion\partialviewing\manysmall\high\manysmall_partialViewing_high_firehydrant2.png,mask_img/000000050239.png,experiment,q,q,608.2095590999816
V3,22,21,Female,Right,200,Block 2,0.928547499992419,0.05,true,person,person,occlusion,control,mask,partial viewing,many small,Stimulus\all_stim\occlusion\partialviewing\manysmall\control\manysmall_partialViewing_control_person8.png,mask_img/000000040466.png,experiment,e,e,609.8657485999865
V3,22,21,Female,Right,201,Block 2,0.5988931999891065,0.1,true,firehydrant,firehydrant,occlusion,low,mask,partial viewing,many small,Stimulus\all_stim\occlusion\partialviewing\manysmall\low\manysmall_partialViewing_low_firehydrant5.png,mask_img/000000060623.png,experiment,q,q,611.2387701999978
V3,22,21,Female,Right,202,Block 2,0.4807059000013396,0.1,true,tree,tree,occlusion,control,mask,partial viewing,many small,Stimulus\all_stim\occlusion\partialviewing\manysmall\control\manysmall_partialViewing_control_tree4.png,mask_img/000000041022.png,experiment,p,p,612.5059626000002
V3,22,21,Female,Right,203,Block 2,0.6323738000064623,0.1,true,firehydrant,firehydrant,occlusion,low,mask,partial viewing,many small,Stimulus\all_stim\occlusion\partialviewing\manysmall\low\manysmall_partialViewing_low_firehydrant7.png,mask_img/000000061084.png,experiment,q,q,614.1882943999954
V3,22,21,Female,Right,204,Block 2,0.8710819999978412,0.05,true,banana,banana,occlusion,low,mask,partial viewing,few large,Stimulus\all_stim\occlusion\partialviewing\fewlarge\low\fewlarge_partialViewing_low_banana6.png,mask_img/000000023137.png,experiment,w,w,616.0897780999949
V3,22,21,Female,Right,205,Block 2,0.8398177000053693,0.025,true,bus,bus,occlusion,high,mask,partial viewing,many small,Stimulus\all_stim\occlusion\partialviewing\manysmall\high\manysmall_partialViewing_high_bus4.png,mask_img/000000047316.png,experiment,r,r,617.6578033999831
V3,22,21,Female,Right,206,Block 2,0.6613621000142302,0.05,true,bus,bus,occlusion,low,mask,partial viewing,few large,Stimulus\all_stim\occlusion\partialviewing\fewlarge\low\fewlarge_partialViewing_low_bus10.png,mask_img/000000025855.png,experiment,r,r,619.225646899984
V3,22,21,Female,Right,207,Block 2,0.8420423000061419,0.05,true,banana,banana,occlusion,high,mask,partial viewing,many small,Stimulus\all_stim\occlusion\partialviewing\manysmall\high\manysmall_partialViewing_high_banana1.png,mask_img/000000041962.png,experiment,w,w,620.8498803999973
V3,22,21,Female,Right,208,Block 2,0.8064054999849759,0.025,true,bird,bird,occlusion,control,mask,partial viewing,many small,Stimulus\all_stim\occlusion\partialviewing\manysmall\control\manysmall_partialViewing_control_bird10.png,mask_img/000000034304.png,experiment,o,o,622.3777687999827
V3,22,21,Female,Right,209,Block 2,0.7342084999836516,0.025,true,person,person,occlusion,control,mask,partial viewing,few large,Stimulus\all_stim\occlusion\partialviewing\fewlarge\control\fewlarge_partialViewing_control_person9.png,mask_img/000000009809.png,experiment,e,e,624.1778346000065
V3,22,21,Female,Right,210,Block 2,1.4689104000281077,0.1,false,cat,bird,occlusion,low,mask,partial viewing,few large,Stimulus\all_stim\occlusion\partialviewing\fewlarge\low\fewlarge_partialViewing_low_cat8.png,mask_img/000000028171.png,experiment,o,u,626.4585069000022
V3,22,21,Female,Right,211,Block 2,0.9013837999955285,0.025,true,building,building,occlusion,low,mask,partial viewing,many small,Stimulus\all_stim\occlusion\partialviewing\manysmall\low\manysmall_partialViewing_low_building8.png,mask_img/000000058073.png,experiment,i,i,628.3315249999869
V3,22,21,Female,Right,212,Block 2,0.635812900000019,0.025,true,cat,cat,occlusion,low,mask,partial viewing,few large,Stimulus\all_stim\occlusion\partialviewing\fewlarge\low\fewlarge_partialViewing_low_cat5.png,mask_img/000000027704.png,experiment,u,u,629.9857474000019
V3,22,21,Female,Right,213,Block 2,0.7087272999924608,0.025,true,building,building,occlusion,high,mask,partial viewing,many small,Stimulus\all_stim\occlusion\partialviewing\manysmall\high\manysmall_partialViewing_high_building3.png,mask_img/000000045655.png,experiment,i,i,631.4495216000068
V3,22,21,Female,Right,214,Block 2,0.6910214999807067,0.05,true,bus,bus,occlusion,control,mask,partial viewing,few large,Stimulus\all_stim\occlusion\partialviewing\fewlarge\control\fewlarge_partialViewing_control_bus10.png,mask_img/000000005282.png,experiment,r,r,632.9697445000056
V3,22,21,Female,Right,215,Block 2,0.5480077000102028,0.025,true,bus,bus,occlusion,control,mask,partial viewing,few large,Stimulus\all_stim\occlusion\partialviewing\fewlarge\control\fewlarge_partialViewing_control_bus9.png,mask_img/000000006263.png,experiment,r,r,634.2803184999793
V3,22,21,Female,Right,216,Block 2,1.0648226999910548,0.1,true,bird,bird,occlusion,high,mask,partial viewing,few large,Stimulus\all_stim\occlusion\partialviewing\fewlarge\high\fewlarge_partialViewing_high_bird10.png,mask_img/000000013127.png,experiment,o,o,636.0979152999935
V3,22,21,Female,Right,217,Block 2,0.9292084999906365,0.1,true,person,person,occlusion,high,mask,partial viewing,many small,Stimulus\all_stim\occlusion\partialviewing\manysmall\high\manysmall_partialViewing_high_person4.png,mask_img/000000052087.png,experiment,e,e,638.1458768000011
V3,22,21,Female,Right,218,Block 2,0.7936399999889545,0.1,true,cat,cat,occlusion,low,mask,partial viewing,few large,Stimulus\all_stim\occlusion\partialviewing\fewlarge\low\fewlarge_partialViewing_low_cat6.png,mask_img/000000027764.png,experiment,u,u,639.7698263000057
V3,22,21,Female,Right,219,Block 2,0.8339160999748856,0.1,true,banana,banana,occlusion,high,mask,partial viewing,few large,Stimulus\all_stim\occlusion\partialviewing\fewlarge\high\fewlarge_partialViewing_high_banana9.png,mask_img/000000012999.png,experiment,w,w,641.467911899992
V3,22,21,Female,Right,220,Block 2,0.9637748000095598,0.1,true,banana,banana,occlusion,high,mask,partial viewing,many small,Stimulus\all_stim\occlusion\partialviewing\manysmall\high\manysmall_partialViewing_high_banana5.png,mask_img/000000042541.png,experiment,w,w,643.2018931999919
V3,22,21,Female,Right,221,Block 2,0.7917177000199445,0.1,true,building,building,occlusion,low,mask,partial viewing,few large,Stimulus\all_stim\occlusion\partialviewing\fewlarge\low\fewlarge_partialViewing_low_building1.png,mask_img/000000024552.png,experiment,i,i,644.7299125999853
V3,22,21,Female,Right,222,Block 2,0.7961065999988932,0.1,true,bird,bird,occlusion,control,mask,partial viewing,few large,Stimulus\all_stim\occlusion\partialviewing\fewlarge\control\fewlarge_partialViewing_control_bird2.png,mask_img/000000001647.png,experiment,o,o,646.5857150999946
V3,22,21,Female,Right,223,Block 2,1.1443186000105925,0.05,true,bus,bus,occlusion,control,mask,partial viewing,many small,Stimulus\all_stim\occlusion\partialviewing\manysmall\control\manysmall_partialViewing_control_bus9.png,mask_img/000000037864.png,experiment,r,r,648.68977669999
V3,22,21,Female,Right,224,Block 2,1.7037755000055768,0.025,false,firehydrant,bird,occlusion,high,mask,partial viewing,many small,Stimulus\all_stim\occlusion\partialviewing\manysmall\high\manysmall_partialViewing_high_firehydrant9.png,mask_img/000000051164.png,experiment,o,q,651.4499963999842
V3,22,21,Female,Right,225,Block 2,1.629569899989292,0.05,true,tree,tree,occlusion,high,mask,partial viewing,many small,Stimulus\all_stim\occlusion\partialviewing\manysmall\high\manysmall_partialViewing_high_tree1.png,mask_img/000000052784.png,experiment,p,p,653.8498150999949
V3,22,21,Female,Right,226,Block 2,1.44713590000174,0.1,true,person,person,occlusion,low,mask,partial viewing,few large,Stimulus\all_stim\occlusion\partialviewing\fewlarge\low\fewlarge_partialViewing_low_person10.png,mask_img/000000029128.png,experiment,e,e,656.0819634999789
V3,22,21,Female,Right,227,Block 2,0.8420811000105459,0.05,true,bird,bird,occlusion,low,mask,partial viewing,many small,Stimulus\all_stim\occlusion\partialviewing\manysmall\low\manysmall_partialViewing_low_bird7.png,mask_img/000000056036.png,experiment,o,o,658.0257565999927
V3,22,21,Female,Right,228,Block 2,0.6546945000009146,0.025,true,tree,tree,occlusion,control,mask,partial viewing,many small,Stimulus\all_stim\occlusion\partialviewing\manysmall\control\manysmall_partialViewing_control_tree9.png,mask_img/000000041840.png,experiment,p,p,659.6897349999927
V3,22,21,Female,Right,229,Block 2,0.9850862000021152,0.025,true,bird,bird,occlusion,low,mask,partial viewing,few large,Stimulus\all_stim\occlusion\partialviewing\fewlarge\low\fewlarge_partialViewing_low_bird7.png,mask_img/000000024403.png,experiment,o,o,661.5304760999861
V3,22,21,Female,Right,230,Block 2,0.7912026999983937,0.025,true,person,person,occlusion,control,mask,partial viewing,many small,Stimulus\all_stim\occlusion\partialviewing\manysmall\control\manysmall_partialViewing_control_person4.png,mask_img/000000040042.png,experiment,e,e,663.2578938999795
V3,22,21,Female,Right,231,Block 2,1.1849079999956302,0.1,true,person,person,occlusion,high,mask,partial viewing,many small,Stimulus\all_stim\occlusion\partialviewing\manysmall\high\manysmall_partialViewing_high_person7.png,mask_img/000000052562.png,experiment,e,e,665.2417985999782
V3,22,21,Female,Right,232,Block 2,0.5920016999880318,0.025,true,tree,tree,occlusion,control,mask,partial viewing,few large,Stimulus\all_stim\occlusion\partialviewing\fewlarge\control\fewlarge_partialViewing_control_tree2.png,mask_img/000000010560.png,experiment,p,p,666.777940400003
V3,22,21,Female,Right,233,Block 2,1.2414149999967776,0.05,false,firehydrant,person,occlusion,high,mask,partial viewing,many small,Stimulus\all_stim\occlusion\partialviewing\manysmall\high\manysmall_partialViewing_high_firehydrant10.png,mask_img/000000050148.png,experiment,e,q,669.0818333000061
V3,22,21,Female,Right,234,Block 2,0.6926221000030637,0.1,true,tree,tree,occlusion,high,mask,partial viewing,many small,Stimulus\all_stim\occlusion\partialviewing\manysmall\high\manysmall_partialViewing_high_tree8.png,mask_img/000000054334.png,experiment,p,p,670.7058640999894
V3,22,21,Female,Right,235,Block 2,1.4467116000014357,0.05,false,bird,person,occlusion,high,mask,partial viewing,many small,Stimulus\all_stim\occlusion\partialviewing\manysmall\high\manysmall_partialViewing_high_bird3.png,mask_img/000000044123.png,experiment,e,o,672.8657227999938
V3,22,21,Female,Right,236,Block 2,1.5180959000135772,0.05,true,building,building,occlusion,high,mask,partial viewing,few large,Stimulus\all_stim\occlusion\partialviewing\fewlarge\high\fewlarge_partialViewing_high_building2.png,mask_img/000000014472.png,experiment,i,i,675.2977679999894
V3,22,21,Female,Right,237,Block 2,0.7243551000137813,0.1,true,bird,bird,occlusion,low,mask,partial viewing,few large,Stimulus\all_stim\occlusion\partialviewing\fewlarge\low\fewlarge_partialViewing_low_bird2.png,mask_img/000000024125.png,experiment,o,o,677.1297182999842
V3,22,21,Female,Right,238,Block 2,0.6917598000145517,0.1,true,tree,tree,occlusion,low,mask,partial viewing,many small,Stimulus\all_stim\occlusion\partialviewing\manysmall\low\manysmall_partialViewing_low_tree1.png,mask_img/000000062690.png,experiment,p,p,678.7536113999959
V3,22,21,Female,Right,239,Block 2,0.6645439999992959,0.1,true,banana,banana,occlusion,control,mask,partial viewing,many small,Stimulus\all_stim\occlusion\partialviewing\manysmall\control\manysmall_partialViewing_control_banana6.png,mask_img/000000033756.png,experiment,w,w,680.2791594000009
V3,22,21,Female,Right,240,Block 2,0.5960768999939319,0.1,true,banana,banana,occlusion,low,mask,partial viewing,many small,Stimulus\all_stim\occlusion\partialviewing\manysmall\low\manysmall_partialViewing_low_banana8.png,mask_img/000000055630.png,experiment,w,w,681.546205199993
V3,22,21,Female,Right,241,Block 2,0.6658369000069797,0.05,true,bird,bird,occlusion,high,mask,partial viewing,few large,Stimulus\all_stim\occlusion\partialviewing\fewlarge\high\fewlarge_partialViewing_high_bird10.png,mask_img/000000013127.png,experiment,o,o,682.9136099999887
V3,22,21,Female,Right,242,Block 2,0.7104434999928344,0.05,true,banana,banana,occlusion,high,mask,partial viewing,many small,Stimulus\all_stim\occlusion\partialviewing\manysmall\high\manysmall_partialViewing_high_banana7.png,mask_img/000000043024.png,experiment,w,w,684.521748500003
V3,22,21,Female,Right,243,Block 2,1.325122799986275,0.05,true,bird,bird,occlusion,high,mask,partial viewing,many small,Stimulus\all_stim\occlusion\partialviewing\manysmall\high\manysmall_partialViewing_high_bird9.png,mask_img/000000044946.png,experiment,o,o,686.6577883999853
V3,22,21,Female,Right,244,Block 2,0.759188299998641,0.05,true,cat,cat,occlusion,control,mask,partial viewing,many small,Stimulus\all_stim\occlusion\partialviewing\manysmall\control\manysmall_partialViewing_control_cat3.png,mask_img/000000038381.png,experiment,u,u,688.2017420000047
V3,22,21,Female,Right,245,Block 2,0.6785847000137437,0.05,false,bus,person,occlusion,control,mask,partial viewing,many small,Stimulus\all_stim\occlusion\partialviewing\manysmall\control\manysmall_partialViewing_control_bus3.png,mask_img/000000036765.png,experiment,e,r,689.7215926999925
V3,22,21,Female,Right,246,Block 2,1.8772013999987394,0.1,true,building,building,occlusion,control,mask,partial viewing,many small,Stimulus\all_stim\occlusion\partialviewing\manysmall\control\manysmall_partialViewing_control_building2.png,mask_img/000000035864.png,experiment,i,i,692.2660327999911
V3,22,21,Female,Right,247,Block 2,0.7812611999979708,0.025,false,bird,banana,occlusion,high,mask,partial viewing,few large,Stimulus\all_stim\occlusion\partialviewing\fewlarge\high\fewlarge_partialViewing_high_bird3.png,mask_img/000000013455.png,experiment,w,o,693.8737066999893
V3,22,21,Female,Right,248,Block 2,2.7088853000022937,0.025,true,tree,tree,occlusion,control,mask,partial viewing,many small,Stimulus\all_stim\occlusion\partialviewing\manysmall\control\manysmall_partialViewing_control_tree2.png,mask_img/000000041008.png,experiment,p,p,697.5700469999865
V3,22,21,Female,Right,249,Block 2,1.2321075000218116,0.1,true,bird,bird,occlusion,low,mask,partial viewing,few large,Stimulus\all_stim\occlusion\partialviewing\fewlarge\low\fewlarge_partialViewing_low_bird3.png,mask_img/000000024157.png,experiment,o,o,699.4578245999874
V3,22,21,Female,Right,250,Block 2,0.6616517000074964,0.1,true,firehydrant,firehydrant,occlusion,control,mask,partial viewing,few large,Stimulus\all_stim\occlusion\partialviewing\fewlarge\control\fewlarge_partialViewing_control_firehydrant1.png,mask_img/000000007740.png,experiment,q,q,700.8716953999829
V3,22,21,Female,Right,251,Block 2,1.4338949999946635,0.1,true,building,building,occlusion,high,mask,partial viewing,many small,Stimulus\all_stim\occlusion\partialviewing\manysmall\high\manysmall_partialViewing_high_building6.png,mask_img/000000046155.png,experiment,i,i,703.1537786999834
V3,22,21,Female,Right,252,Block 2,0.6329799999948591,0.1,true,cat,cat,occlusion,control,mask,partial viewing,few large,Stimulus\all_stim\occlusion\partialviewing\fewlarge\control\fewlarge_partialViewing_control_cat3.png,mask_img/000000006709.png,experiment,u,u,704.5564236000064
V3,22,21,Female,Right,253,Block 2,0.8523337000224274,0.1,true,banana,banana,occlusion,control,mask,partial viewing,few large,Stimulus\all_stim\occlusion\partialviewing\fewlarge\control\fewlarge_partialViewing_control_banana5.png,mask_img/000000000459.png,experiment,w,w,706.2902812999964
V3,22,21,Female,Right,254,Block 2,0.8555091999878641,0.05,true,person,person,occlusion,high,mask,partial viewing,few large,Stimulus\all_stim\occlusion\partialviewing\fewlarge\high\fewlarge_partialViewing_high_person1.png,mask_img/000000019759.png,experiment,e,e,708.0100886999862
V3,22,21,Female,Right,255,Block 2,0.5856338000157848,0.025,true,tree,tree,occlusion,low,mask,partial viewing,few large,Stimulus\all_stim\occlusion\partialviewing\fewlarge\low\fewlarge_partialViewing_low_tree3.png,mask_img/000000031717.png,experiment,p,p,709.6495767000015
V3,22,21,Female,Right,256,Block 2,0.7066056999901775,0.05,true,bird,bird,occlusion,control,mask,partial viewing,many small,Stimulus\all_stim\occlusion\partialviewing\manysmall\control\manysmall_partialViewing_control_bird5.png,mask_img/000000034930.png,experiment,o,o,711.1061526999983
V3,22,21,Female,Right,257,Block 2,0.8650119999947492,0.025,true,person,person,occlusion,low,mask,partial viewing,many small,Stimulus\all_stim\occlusion\partialviewing\manysmall\low\manysmall_partialViewing_low_person7.png,mask_img/000000062350.png,experiment,e,e,712.913607399998
V3,22,21,Female,Right,258,Block 2,0.7218101999897044,0.025,true,building,building,occlusion,low,mask,partial viewing,few large,Stimulus\all_stim\occlusion\partialviewing\fewlarge\low\fewlarge_partialViewing_low_building1.png,mask_img/000000024552.png,experiment,i,i,714.433744799986
V3,22,21,Female,Right,259,Block 2,0.6397669000143651,0.05,true,tree,tree,occlusion,low,mask,partial viewing,many small,Stimulus\all_stim\occlusion\partialviewing\manysmall\low\manysmall_partialViewing_low_tree6.png,mask_img/000000063715.png,experiment,p,p,715.9697445000056
V3,22,21,Female,Right,260,Block 2,0.8939375000190921,0.05,true,building,building,occlusion,high,mask,partial viewing,many small,Stimulus\all_stim\occlusion\partialviewing\manysmall\high\manysmall_partialViewing_high_building10.png,mask_img/000000044989.png,experiment,i,i,717.8018970999983
V3,22,21,Female,Right,261,Block 2,1.3240313999995124,0.025,true,firehydrant,firehydrant,occlusion,high,mask,partial viewing,few large,Stimulus\all_stim\occlusion\partialviewing\fewlarge\high\fewlarge_partialViewing_high_firehydrant2.png,mask_img/000000018743.png,experiment,q,q,719.8817175999866
V3,22,21,Female,Right,262,Block 2,1.1117671999963932,0.05,true,building,building,occlusion,control,mask,partial viewing,few large,Stimulus\all_stim\occlusion\partialviewing\fewlarge\control\fewlarge_partialViewing_control_building6.png,mask_img/000000004739.png,experiment,i,i,721.8978721000021
V3,22,21,Female,Right,263,Block 2,0.8388439000118524,0.05,true,firehydrant,firehydrant,occlusion,control,mask,partial viewing,few large,Stimulus\all_stim\occlusion\partialviewing\fewlarge\control\fewlarge_partialViewing_control_firehydrant3.png,mask_img/000000007946.png,experiment,q,q,723.8100649999978
V3,22,21,Female,Right,264,Block 2,0.5885700999933761,0.1,true,tree,tree,occlusion,low,mask,partial viewing,few large,Stimulus\all_stim\occlusion\partialviewing\fewlarge\low\fewlarge_partialViewing_low_tree7.png,mask_img/000000032906.png,experiment,p,p,725.1633906000061
V3,22,21,Female,Right,265,Block 2,0.6240114999818616,0.1,true,firehydrant,firehydrant,occlusion,low,mask,partial viewing,few large,Stimulus\all_stim\occlusion\partialviewing\fewlarge\low\fewlarge_partialViewing_low_firehydrant8.png,mask_img/000000028988.png,experiment,q,q,726.5792764999787
V3,22,21,Female,Right,266,Block 2,0.8722294000035618,0.05,true,person,person,occlusion,high,mask,partial viewing,few large,Stimulus\all_stim\occlusion\partialviewing\fewlarge\high\fewlarge_partialViewing_high_person7.png,mask_img/000000020421.png,experiment,e,e,728.5146680999896
V3,22,21,Female,Right,267,Block 2,0.5158951999910641,0.05,true,tree,tree,occlusion,low,mask,partial viewing,few large,Stimulus\all_stim\occlusion\partialviewing\fewlarge\low\fewlarge_partialViewing_low_tree6.png,mask_img/000000032720.png,experiment,p,p,730.032366600004
V3,22,21,Female,Right,268,Block 2,1.9954490999807604,0.025,true,firehydrant,firehydrant,occlusion,control,mask,partial viewing,many small,Stimulus\all_stim\occlusion\partialviewing\manysmall\control\manysmall_partialViewing_control_firehydrant3.png,mask_img/000000039113.png,experiment,q,q,732.68203549998
V3,22,21,Female,Right,269,Block 2,1.2054445999965537,0.025,true,bus,bus,occlusion,high,mask,partial viewing,many small,Stimulus\all_stim\occlusion\partialviewing\manysmall\high\manysmall_partialViewing_high_bus8.png,mask_img/000000048169.png,experiment,r,r,734.6417842999799
V3,22,21,Female,Right,270,Block 2,0.5331002000020817,0.05,true,tree,tree,occlusion,control,mask,partial viewing,few large,Stimulus\all_stim\occlusion\partialviewing\fewlarge\control\fewlarge_partialViewing_control_tree3.png,mask_img/000000010566.png,experiment,p,p,736.1662458999781
V3,22,21,Female,Right,271,Block 2,0.6682365999731701,0.05,true,person,person,occlusion,control,mask,partial viewing,many small,Stimulus\all_stim\occlusion\partialviewing\manysmall\control\manysmall_partialViewing_control_person2.png,mask_img/000000039971.png,experiment,e,e,737.9379580999957
V3,22,21,Female,Right,272,Block 2,1.3143998999730684,0.025,false,bus,person,occlusion,control,mask,partial viewing,many small,Stimulus\all_stim\occlusion\partialviewing\manysmall\control\manysmall_partialViewing_control_bus1.png,mask_img/000000036255.png,experiment,e,r,740.1777995000011
V3,22,21,Female,Right,273,Block 2,0.77974479997647,0.1,true,person,person,occlusion,control,mask,partial viewing,few large,Stimulus\all_stim\occlusion\partialviewing\fewlarge\control\fewlarge_partialViewing_control_person4.png,mask_img/000000009178.png,experiment,e,e,741.9140391999972
V3,22,21,Female,Right,274,Block 2,0.5739205999998376,0.1,true,person,person,occlusion,low,mask,partial viewing,few large,Stimulus\all_stim\occlusion\partialviewing\fewlarge\low\fewlarge_partialViewing_low_person5.png,mask_img/000000029964.png,experiment,e,e,743.5371839999862
V3,22,21,Female,Right,275,Block 2,1.757668400008697,0.05,false,bird,person,occlusion,high,mask,partial viewing,many small,Stimulus\all_stim\occlusion\partialviewing\manysmall\high\manysmall_partialViewing_high_bird4.png,mask_img/000000044136.png,experiment,e,o,746.4180518999929
V3,22,21,Female,Right,276,Block 2,0.6698747999907937,0.1,true,firehydrant,firehydrant,occlusion,low,mask,partial viewing,few large,Stimulus\all_stim\occlusion\partialviewing\fewlarge\low\fewlarge_partialViewing_low_firehydrant5.png,mask_img/000000028698.png,experiment,q,q,748.0739701999992
V3,22,21,Female,Right,277,Block 2,0.7745027999917511,0.05,true,banana,banana,occlusion,control,mask,partial viewing,few large,Stimulus\all_stim\occlusion\partialviewing\fewlarge\control\fewlarge_partialViewing_control_banana7.png,mask_img/000000000626.png,experiment,w,w,749.7138516999839
V3,22,21,Female,Right,278,Block 2,1.263921500009019,0.025,false,firehydrant,person,occlusion,high,mask,partial viewing,few large,Stimulus\all_stim\occlusion\partialviewing\fewlarge\high\fewlarge_partialViewing_high_firehydrant1.png,mask_img/000000017944.png,experiment,e,q,751.9697330000054
V3,22,21,Female,Right,279,Block 2,0.7111187000118662,0.05,true,building,building,occlusion,control,mask,partial viewing,few large,Stimulus\all_stim\occlusion\partialviewing\fewlarge\control\fewlarge_partialViewing_control_building7.png,mask_img/000000004936.png,experiment,i,i,753.4179193000018
V3,22,21,Female,Right,280,Block 2,0.6402553000079934,0.025,true,person,person,occlusion,control,mask,partial viewing,few large,Stimulus\all_stim\occlusion\partialviewing\fewlarge\control\fewlarge_partialViewing_control_person8.png,mask_img/000000009729.png,experiment,e,e,754.7537089999823
V3,22,21,Female,Right,281,Block 2,0.862587599986,0.05,true,banana,banana,occlusion,high,mask,partial viewing,many small,Stimulus\all_stim\occlusion\partialviewing\manysmall\high\manysmall_partialViewing_high_banana5.png,mask_img/000000042541.png,experiment,w,w,756.6017082000035
V3,22,21,Female,Right,282,Block 2,0.8529007000033744,0.05,true,bus,bus,occlusion,control,mask,partial viewing,few large,Stimulus\all_stim\occlusion\partialviewing\fewlarge\control\fewlarge_partialViewing_control_bus9.png,mask_img/000000006263.png,experiment,r,r,758.5299343999941
V3,22,21,Female,Right,283,Block 2,0.7657736999972258,0.05,true,bird,bird,occlusion,low,mask,partial viewing,few large,Stimulus\all_stim\occlusion\partialviewing\fewlarge\low\fewlarge_partialViewing_low_bird2.png,mask_img/000000024125.png,experiment,o,o,760.0422628999804
V3,22,21,Female,Right,284,Block 2,2.076208799990127,0.05,true,cat,cat,occlusion,high,mask,partial viewing,few large,Stimulus\all_stim\occlusion\partialviewing\fewlarge\high\fewlarge_partialViewing_high_cat9.png,mask_img/000000017858.png,experiment,u,u,762.8677692000056
V3,22,21,Female,Right,285,Block 2,0.7351745000050869,0.025,true,person,person,occlusion,low,mask,partial viewing,few large,Stimulus\all_stim\occlusion\partialviewing\fewlarge\low\fewlarge_partialViewing_low_person1.png,mask_img/000000029090.png,experiment,e,e,764.5697151999921
V3,22,21,Female,Right,286,Block 2,0.7732950999925379,0.025,true,bus,bus,occlusion,high,mask,partial viewing,many small,Stimulus\all_stim\occlusion\partialviewing\manysmall\high\manysmall_partialViewing_high_bus5.png,mask_img/000000047395.png,experiment,r,r,766.2177354999876
V3,22,21,Female,Right,287,Block 2,0.7503130999975838,0.025,true,banana,banana,occlusion,low,mask,partial viewing,many small,Stimulus\all_stim\occlusion\partialviewing\manysmall\low\manysmall_partialViewing_low_banana1.png,mask_img/000000054532.png,experiment,w,w,767.913834099978
V3,22,21,Female,Right,288,Block 2,1.3224473999871407,0.05,true,building,building,occlusion,high,mask,partial viewing,few large,Stimulus\all_stim\occlusion\partialviewing\fewlarge\high\fewlarge_partialViewing_high_building6.png,mask_img/000000014774.png,experiment,i,i,799.2502194999834
V3,22,21,Female,Right,289,Block 3,0.6663523000024725,0.025,true,banana,banana,occlusion,control,mask,partial viewing,many small,Stimulus\all_stim\occlusion\partialviewing\manysmall\control\manysmall_partialViewing_control_banana10.png,mask_img/000000033074.png,experiment,w,w,800.6900444999919
V3,22,21,Female,Right,290,Block 3,0.8140776999935042,0.1,true,person,person,occlusion,low,mask,partial viewing,many small,Stimulus\all_stim\occlusion\partialviewing\manysmall\low\manysmall_partialViewing_low_person7.png,mask_img/000000062350.png,experiment,e,e,802.4419602999988
V3,22,21,Female,Right,291,Block 3,0.8831956000067294,0.025,true,banana,banana,occlusion,low,mask,partial viewing,few large,Stimulus\all_stim\occlusion\partialviewing\fewlarge\low\fewlarge_partialViewing_low_banana5.png,mask_img/000000023100.png,experiment,w,w,804.345771399996
V3,22,21,Female,Right,292,Block 3,0.8139110000047367,0.05,true,person,person,occlusion,low,mask,partial viewing,many small,Stimulus\all_stim\occlusion\partialviewing\manysmall\low\manysmall_partialViewing_low_person8.png,mask_img/000000062420.png,experiment,e,e,806.0898646999849
V3,22,21,Female,Right,293,Block 3,0.5355307999998331,0.025,false,banana,person,occlusion,control,mask,partial viewing,many small,Stimulus\all_stim\occlusion\partialviewing\manysmall\control\manysmall_partialViewing_control_banana9.png,mask_img/000000033955.png,experiment,e,w,807.5941856999998
V3,22,21,Female,Right,294,Block 3,0.6131896000006236,0.1,true,firehydrant,firehydrant,occlusion,control,mask,partial viewing,few large,Stimulus\all_stim\occlusion\partialviewing\fewlarge\control\fewlarge_partialViewing_control_firehydrant9.png,mask_img/000000008329.png,experiment,q,q,809.2108579000051
V3,22,21,Female,Right,295,Block 3,0.9420672999985982,0.025,true,cat,cat,occlusion,control,mask,partial viewing,few large,Stimulus\all_stim\occlusion\partialviewing\fewlarge\control\fewlarge_partialViewing_control_cat5.png,mask_img/000000006870.png,experiment,u,u,810.8180840999994
V3,22,21,Female,Right,296,Block 3,0.7274044000077993,0.05,true,bird,bird,occlusion,high,mask,partial viewing,few large,Stimulus\all_stim\occlusion\partialviewing\fewlarge\high\fewlarge_partialViewing_high_bird7.png,mask_img/000000013949.png,experiment,o,o,812.4497950999939
V3,22,21,Female,Right,297,Block 3,1.2500383000005968,0.1,true,banana,banana,occlusion,low,mask,partial viewing,few large,Stimulus\all_stim\occlusion\partialviewing\fewlarge\low\fewlarge_partialViewing_low_banana1.png,mask_img/000000022545.png,experiment,w,w,814.7621809999982
V3,22,21,Female,Right,298,Block 3,0.6821395000151824,0.1,true,cat,cat,occlusion,low,mask,partial viewing,many small,Stimulus\all_stim\occlusion\partialviewing\manysmall\low\manysmall_partialViewing_low_cat5.png,mask_img/000000059660.png,experiment,u,u,816.249909599981
V3,22,21,Female,Right,299,Block 3,0.7944478999997955,0.1,true,person,person,occlusion,low,mask,partial viewing,few large,Stimulus\all_stim\occlusion\partialviewing\fewlarge\low\fewlarge_partialViewing_low_person6.png,mask_img/000000030267.png,experiment,e,e,817.930127700005
V3,22,21,Female,Right,300,Block 3,0.9169056999962777,0.025,true,tree,tree,occlusion,low,mask,partial viewing,many small,Stimulus\all_stim\occlusion\partialviewing\manysmall\low\manysmall_partialViewing_low_tree4.png,mask_img/000000063337.png,experiment,p,p,819.6818912999879
V3,22,21,Female,Right,301,Block 3,0.6673098999890499,0.05,true,firehydrant,firehydrant,occlusion,high,mask,partial viewing,many small,Stimulus\all_stim\occlusion\partialviewing\manysmall\high\manysmall_partialViewing_high_firehydrant2.png,mask_img/000000050239.png,experiment,q,q,821.2578862999799
V3,22,21,Female,Right,302,Block 3,1.3688716000178829,0.025,true,cat,cat,occlusion,low,mask,partial viewing,many small,Stimulus\all_stim\occlusion\partialviewing\manysmall\low\manysmall_partialViewing_low_cat3.png,mask_img/000000059442.png,experiment,u,u,823.5217775999918
V3,22,21,Female,Right,303,Block 3,1.0214340999955311,0.1,true,person,person,occlusion,low,mask,partial viewing,many small,Stimulus\all_stim\occlusion\partialviewing\manysmall\low\manysmall_partialViewing_low_person6.png,mask_img/000000062337.png,experiment,e,e,825.2178732999892
V3,22,21,Female,Right,304,Block 3,1.2877702999976464,0.1,true,building,building,occlusion,low,mask,partial viewing,many small,Stimulus\all_stim\occlusion\partialviewing\manysmall\low\manysmall_partialViewing_low_building4.png,mask_img/000000057782.png,experiment,i,i,827.4257526999863
V3,22,21,Female,Right,305,Block 3,0.8754533999890555,0.05,true,person,person,occlusion,control,mask,partial viewing,many small,Stimulus\all_stim\occlusion\partialviewing\manysmall\control\manysmall_partialViewing_control_person10.png,mask_img/000000039778.png,experiment,e,e,829.2018504999869
V3,22,21,Female,Right,306,Block 3,0.5568562000116799,0.05,true,tree,tree,occlusion,high,mask,partial viewing,few large,Stimulus\all_stim\occlusion\partialviewing\fewlarge\high\fewlarge_partialViewing_high_tree5.png,mask_img/000000022102.png,experiment,p,p,830.5693371999951
V3,22,21,Female,Right,307,Block 3,0.4997109999821987,0.025,true,tree,tree,occlusion,control,mask,partial viewing,few large,Stimulus\all_stim\occlusion\partialviewing\fewlarge\control\fewlarge_partialViewing_control_tree6.png,mask_img/000000011328.png,experiment,p,p,832.1527115000063
V3,22,21,Female,Right,308,Block 3,1.1030688000028022,0.025,false,tree,cat,occlusion,high,mask,partial viewing,many small,Stimulus\all_stim\occlusion\partialviewing\manysmall\high\manysmall_partialViewing_high_tree8.png,mask_img/000000054334.png,experiment,u,p,834.1779348999844
V3,22,21,Female,Right,309,Block 3,0.8032886000000872,0.05,true,building,building,occlusion,high,mask,partial viewing,few large,Stimulus\all_stim\occlusion\partialviewing\fewlarge\high\fewlarge_partialViewing_high_building8.png,mask_img/000000015366.png,experiment,i,i,835.7057659999991
V3,22,21,Female,Right,310,Block 3,0.7280577000055928,0.025,true,banana,banana,occlusion,control,mask,partial viewing,many small,Stimulus\all_stim\occlusion\partialviewing\manysmall\control\manysmall_partialViewing_control_banana7.png,mask_img/000000033861.png,experiment,w,w,837.2416890999884
V3,22,21,Female,Right,311,Block 3,0.864006599993445,0.05,false,building,bird,occlusion,control,mask,partial viewing,many small,Stimulus\all_stim\occlusion\partialviewing\manysmall\control\manysmall_partialViewing_control_building3.png,mask_img/000000035979.png,experiment,o,i,839.145708600001
V3,22,21,Female,Right,312,Block 3,2.1618224999983795,0.025,true,cat,cat,occlusion,low,mask,partial viewing,few large,Stimulus\all_stim\occlusion\partialviewing\fewlarge\low\fewlarge_partialViewing_low_cat3.png,mask_img/000000027556.png,experiment,u,u,842.1062845999841
V3,22,21,Female,Right,313,Block 3,0.6038008000177797,0.1,true,cat,cat,occlusion,low,mask,partial viewing,many small,Stimulus\all_stim\occlusion\partialviewing\manysmall\low\manysmall_partialViewing_low_cat10.png,mask_img/000000059046.png,experiment,u,u,843.5234838000033
V3,22,21,Female,Right,314,Block 3,1.1537054000073113,0.1,false,bus,building,occlusion,low,mask,partial viewing,few large,Stimulus\all_stim\occlusion\partialviewing\fewlarge\low\fewlarge_partialViewing_low_bus9.png,mask_img/000000027005.png,experiment,i,r,845.4817351999809
V3,22,21,Female,Right,315,Block 3,0.6422307000029832,0.05,true,firehydrant,firehydrant,occlusion,control,mask,partial viewing,many small,Stimulus\all_stim\occlusion\partialviewing\manysmall\control\manysmall_partialViewing_control_firehydrant2.png,mask_img/000000039089.png,experiment,q,q,846.78583909999
V3,22,21,Female,Right,316,Block 3,1.1329419999965467,0.025,true,bus,bus,occlusion,low,mask,partial viewing,few large,Stimulus\all_stim\occlusion\partialviewing\fewlarge\low\fewlarge_partialViewing_low_bus4.png,mask_img/000000026053.png,experiment,r,r,848.7220975999953
V3,22,21,Female,Right,317,Block 3,1.3544791000022087,0.025,true,bird,bird,occlusion,control,mask,partial viewing,many small,Stimulus\all_stim\occlusion\partialviewing\manysmall\control\manysmall_partialViewing_control_bird9.png,mask_img/000000035514.png,experiment,o,o,850.9379762999888
V3,22,21,Female,Right,318,Block 3,0.7876699000189546,0.1,true,cat,cat,occlusion,low,mask,partial viewing,few large,Stimulus\all_stim\occlusion\partialviewing\fewlarge\low\fewlarge_partialViewing_low_cat7.png,mask_img/000000027890.png,experiment,u,u,852.489960899984
V3,22,21,Female,Right,319,Block 3,0.9901438000088092,0.025,true,person,person,occlusion,control,mask,partial viewing,many small,Stimulus\all_stim\occlusion\partialviewing\manysmall\control\manysmall_partialViewing_control_person9.png,mask_img/000000040771.png,experiment,e,e,854.3220001999871
V3,22,21,Female,Right,320,Block 3,1.1586485000152607,0.025,false,bird,cat,occlusion,low,mask,partial viewing,many small,Stimulus\all_stim\occlusion\partialviewing\manysmall\low\manysmall_partialViewing_low_bird1.png,mask_img/000000055694.png,experiment,u,o,856.5538664000051
V3,22,21,Female,Right,321,Block 3,0.9477460000198334,0.1,true,tree,tree,occlusion,high,mask,partial viewing,many small,Stimulus\all_stim\occlusion\partialviewing\manysmall\high\manysmall_partialViewing_high_tree5.png,mask_img/000000053410.png,experiment,p,p,858.3377582999819
V3,22,21,Female,Right,322,Block 3,0.9664912000007462,0.1,true,bird,bird,occlusion,low,mask,partial viewing,few large,Stimulus\all_stim\occlusion\partialviewing\fewlarge\low\fewlarge_partialViewing_low_bird7.png,mask_img/000000024403.png,experiment,o,o,860.4098145999887
V3,22,21,Female,Right,323,Block 3,1.1308588999963831,0.025,false,bird,cat,occlusion,high,mask,partial viewing,many small,Stimulus\all_stim\occlusion\partialviewing\manysmall\high\manysmall_partialViewing_high_bird10.png,mask_img/000000044065.png,experiment,u,o,862.4116469
V3,22,21,Female,Right,324,Block 3,0.871225000009872,0.025,true,bird,bird,occlusion,high,mask,partial viewing,many small,Stimulus\all_stim\occlusion\partialviewing\manysmall\high\manysmall_partialViewing_high_bird7.png,mask_img/000000044580.png,experiment,o,o,864.347660200001
V3,22,21,Female,Right,325,Block 3,0.9473509000090417,0.025,true,bird,bird,occlusion,high,mask,partial viewing,few large,Stimulus\all_stim\occlusion\partialviewing\fewlarge\high\fewlarge_partialViewing_high_bird6.png,mask_img/000000013944.png,experiment,o,o,866.2178345999855
V3,22,21,Female,Right,326,Block 3,0.9695527000003494,0.05,true,building,building,occlusion,control,mask,partial viewing,many small,Stimulus\all_stim\occlusion\partialviewing\manysmall\control\manysmall_partialViewing_control_building8.png,mask_img/000000036091.png,experiment,i,i,868.2099367000046
V3,22,21,Female,Right,327,Block 3,0.6009965999983251,0.05,true,tree,tree,occlusion,control,mask,partial viewing,few large,Stimulus\all_stim\occlusion\partialviewing\fewlarge\control\fewlarge_partialViewing_control_tree2.png,mask_img/000000010560.png,experiment,p,p,869.7988951999869
V3,22,21,Female,Right,328,Block 3,0.5226484999875538,0.05,true,tree,tree,occlusion,control,mask,partial viewing,many small,Stimulus\all_stim\occlusion\partialviewing\manysmall\control\manysmall_partialViewing_control_tree8.png,mask_img/000000041577.png,experiment,p,p,871.017549799988
