pt_num,Age,Gender,Handedness,trial_nbr,block_number,rt,soa,acc,category,choiced_category,manipulation,difficulty,mask,type_occl,size_occl,filename,mask_filename,task,pressed_key,correct_key,Experiment Duration
3,17,Male,Right,1,Training,1.9332340999972075,0.05,false,building,bus,occlusion,control,mask,partial viewing,many small,Training_Stimulus\manysmall_partialViewing_control_building24.png,mask_img/000000004739.png,training,w,q,193.3810752999998
3,17,Male,Right,2,Training,3.142057399993064,0.025,true,firehydrant,firehydrant,occlusion,control,mask,partial viewing,many small,Training_Stimulus\manysmall_partialViewing_control_firehydrant90.png,mask_img/000000005131.png,training,u,u,197.6137432999967
3,17,Male,Right,3,Training,1.639294799999334,0.125,false,person,cat,occlusion,high,mask,partial viewing,few large,Training_Stimulus\fewlarge_partialViewing_high_person189.png,mask_img/000000001997.png,training,o,i,200.629923600005
3,17,Male,Right,4,Training,3.015723099990282,0.025,false,bird,tree,occlusion,high,mask,partial viewing,few large,Training_Stimulus\fewlarge_partialViewing_high_bird4.png,mask_img/000000000731.png,training,r,p,205.06834860000527
3,17,Male,Right,5,Training,1.7457517000002554,0.025,false,banana,bus,occlusion,low,mask,partial viewing,few large,Training_Stimulus\fewlarge_partialViewing_low_banana454.png,mask_img/000000002337.png,training,w,e,208.2366655000078
3,17,Male,Right,6,Training,1.5138379000127316,0.05,true,bus,bus,occlusion,high,mask,partial viewing,few large,Training_Stimulus\fewlarge_partialViewing_high_bus180.png,mask_img/000000001053.png,training,w,w,210.97749449999537
3,17,Male,Right,7,Training,2.031463099992834,0.125,true,cat,cat,occlusion,control,mask,partial viewing,few large,Training_Stimulus\fewlarge_partialViewing_control_cat432.png,mask_img/000000000438.png,training,o,o,214.27476970000134
3,17,Male,Right,8,Training,1.1857272000052035,0.05,true,bus,bus,occlusion,control,mask,partial viewing,few large,Training_Stimulus\fewlarge_partialViewing_control_bus180.png,mask_img/000000000394.png,training,w,w,216.8222228000086
3,17,Male,Right,9,Training,1.5766665999981342,0.05,false,banana,tree,occlusion,high,mask,partial viewing,few large,Training_Stimulus\fewlarge_partialViewing_high_banana454.png,mask_img/000000000690.png,training,r,e,219.55689590000839
3,17,Male,Right,10,Training,2.4276305999956094,0.025,false,person,banana,occlusion,high,mask,partial viewing,many small,Training_Stimulus\manysmall_partialViewing_high_person189.png,mask_img/000000006153.png,training,e,i,223.1038341000094
3,17,Male,Right,11,Training,1.4669181000062963,0.125,true,building,building,occlusion,high,mask,partial viewing,many small,Training_Stimulus\manysmall_partialViewing_high_building24.png,mask_img/000000005574.png,training,q,q,225.9683997999964
3,17,Male,Right,12,Training,1.1348249000002397,0.025,false,cat,building,occlusion,high,mask,partial viewing,many small,Training_Stimulus\manysmall_partialViewing_high_cat432.png,mask_img/000000005862.png,training,q,o,228.5534023000073
3,17,Male,Right,13,Training,1.2740684000018518,0.125,true,bus,bus,occlusion,low,mask,partial viewing,many small,Training_Stimulus\manysmall_partialViewing_low_bus180.png,mask_img/000000006709.png,training,w,w,231.03768039999704
3,17,Male,Right,14,Training,1.7562761999870418,0.05,false,cat,tree,occlusion,low,mask,partial viewing,few large,Training_Stimulus\fewlarge_partialViewing_low_cat432.png,mask_img/000000003084.png,training,r,o,234.2107842999976
3,17,Male,Right,15,Training,2.3519892999902368,0.125,true,firehydrant,firehydrant,occlusion,low,mask,partial viewing,many small,Training_Stimulus\manysmall_partialViewing_low_firehydrant90.png,mask_img/000000006870.png,training,u,u,237.96085960000346
3,17,Male,Right,16,Training,0.8901552000024822,0.125,false,banana,bus,occlusion,high,mask,partial viewing,few large,Training_Stimulus\fewlarge_partialViewing_high_banana454.png,mask_img/000000000690.png,training,w,e,240.19025410000177
3,17,Male,Right,17,Training,1.1046617999963928,0.025,false,building,bus,occlusion,high,mask,partial viewing,few large,Training_Stimulus\fewlarge_partialViewing_high_building24.png,mask_img/000000000873.png,training,w,q,242.70629149999877
3,17,Male,Right,18,Training,1.1356570000061765,0.125,true,bus,bus,occlusion,low,mask,partial viewing,few large,Training_Stimulus\fewlarge_partialViewing_low_bus180.png,mask_img/000000002892.png,training,w,w,245.19692430000578
3,17,Male,Right,19,Training,1.5581688999955077,0.025,false,firehydrant,person,occlusion,control,mask,partial viewing,few large,Training_Stimulus\fewlarge_partialViewing_control_firehydrant90.png,mask_img/000000000459.png,training,i,u,247.8846038000047
3,17,Male,Right,20,Training,1.2759941999975126,0.125,true,bus,bus,occlusion,control,mask,partial viewing,many small,Training_Stimulus\manysmall_partialViewing_control_bus180.png,mask_img/000000004936.png,training,w,w,250.36928199999966
3,17,Male,Right,21,Training,2.3441681999975117,0.05,true,person,person,occlusion,high,mask,partial viewing,many small,Training_Stimulus\manysmall_partialViewing_high_person189.png,mask_img/000000006153.png,training,i,i,253.87590890000865
3,17,Male,Right,22,Training,1.2887157000077423,0.125,true,banana,banana,occlusion,control,mask,partial viewing,few large,Training_Stimulus\fewlarge_partialViewing_control_banana454.png,mask_img/000000000042.png,training,e,e,256.2979373999988
3,17,Male,Right,23,Training,1.2345072000025539,0.025,false,building,bus,occlusion,control,mask,partial viewing,many small,Training_Stimulus\manysmall_partialViewing_control_building24.png,mask_img/000000004739.png,training,w,q,258.9164698999957
3,17,Male,Right,24,Training,2.0006067999929655,0.025,true,bird,bird,occlusion,high,mask,partial viewing,many small,Training_Stimulus\manysmall_partialViewing_high_bird4.png,mask_img/000000005418.png,training,p,p,262.0884217999992
3,17,Male,Right,25,Training,1.203141499994672,0.05,true,banana,banana,occlusion,low,mask,partial viewing,many small,Training_Stimulus\manysmall_partialViewing_low_banana454.png,mask_img/000000006437.png,training,e,e,264.7512926000054
3,17,Male,Right,26,Training,1.2140902999963146,0.125,true,building,building,occlusion,low,mask,partial viewing,few large,Training_Stimulus\fewlarge_partialViewing_low_building24.png,mask_img/000000002822.png,training,q,q,267.0950456999999
3,17,Male,Right,27,Training,0.9556216999917524,0.125,true,banana,banana,occlusion,low,mask,partial viewing,few large,Training_Stimulus\fewlarge_partialViewing_low_banana454.png,mask_img/000000002337.png,training,e,e,269.4495115000027
3,17,Male,Right,28,Training,0.998475000000326,0.125,true,bird,bird,occlusion,control,mask,partial viewing,many small,Training_Stimulus\manysmall_partialViewing_control_bird4.png,mask_img/000000004642.png,training,p,p,271.63541899999836
3,17,Male,Right,29,Training,0.7388102999975672,0.05,true,bird,bird,occlusion,low,mask,partial viewing,many small,Training_Stimulus\manysmall_partialViewing_low_bird4.png,mask_img/000000006481.png,training,p,p,273.7030480999965
3,17,Male,Right,30,Training,0.8975669000064954,0.05,true,bus,bus,occlusion,control,mask,partial viewing,many small,Training_Stimulus\manysmall_partialViewing_control_bus180.png,mask_img/000000004936.png,training,w,w,275.76565420000406
3,17,Male,Right,31,Training,0.6733576999977231,0.05,true,banana,banana,occlusion,control,mask,partial viewing,few large,Training_Stimulus\fewlarge_partialViewing_control_banana454.png,mask_img/000000000042.png,training,e,e,277.9380134999956
3,17,Male,Right,1,Block 1,0.7772816000069724,0.125,true,banana,banana,occlusion,control,mask,partial viewing,many small,Stimulus\all_stim\occlusion\partialviewing\manysmall\control\manysmall_partialViewing_control_banana3.png,mask_img/000000033323.png,experiment,e,e,289.380516300007
3,17,Male,Right,2,Block 1,0.8543440000066767,0.125,true,building,building,occlusion,high,mask,partial viewing,few large,Stimulus\all_stim\occlusion\partialviewing\fewlarge\high\fewlarge_partialViewing_high_building8.png,mask_img/000000015366.png,experiment,q,q,291.1728509000095
3,17,Male,Right,3,Block 1,1.202055100002326,0.05,true,bird,bird,occlusion,high,mask,partial viewing,many small,Stimulus\all_stim\occlusion\partialviewing\manysmall\high\manysmall_partialViewing_high_bird7.png,mask_img/000000044580.png,experiment,p,p,293.525458300006
3,17,Male,Right,4,Block 1,0.836064199989778,0.125,true,bird,bird,occlusion,control,mask,partial viewing,many small,Stimulus\all_stim\occlusion\partialviewing\manysmall\control\manysmall_partialViewing_control_bird6.png,mask_img/000000034993.png,experiment,p,p,295.02064810000593
3,17,Male,Right,5,Block 1,0.6515513999911491,0.125,true,banana,banana,occlusion,control,mask,partial viewing,many small,Stimulus\all_stim\occlusion\partialviewing\manysmall\control\manysmall_partialViewing_control_banana5.png,mask_img/000000033669.png,experiment,e,e,296.446142300003
3,17,Male,Right,6,Block 1,1.610339799997746,0.125,true,tree,tree,occlusion,low,mask,partial viewing,many small,Stimulus\all_stim\occlusion\partialviewing\manysmall\low\manysmall_partialViewing_low_tree4.png,mask_img/000000063337.png,experiment,r,r,298.8445165000012
3,17,Male,Right,7,Block 1,0.8070653000031598,0.025,true,bus,bus,occlusion,low,mask,partial viewing,many small,Stimulus\all_stim\occlusion\partialviewing\manysmall\low\manysmall_partialViewing_low_bus3.png,mask_img/000000058647.png,experiment,w,w,300.34911710000597
3,17,Male,Right,8,Block 1,1.8105264999903738,0.05,false,cat,person,occlusion,high,mask,partial viewing,few large,Stimulus\all_stim\occlusion\partialviewing\fewlarge\high\fewlarge_partialViewing_high_cat9.png,mask_img/000000017858.png,experiment,i,o,302.95695950000663
3,17,Male,Right,9,Block 1,0.9407788999960758,0.125,true,bus,bus,occlusion,high,mask,partial viewing,many small,Stimulus\all_stim\occlusion\partialviewing\manysmall\high\manysmall_partialViewing_high_bus4.png,mask_img/000000047316.png,experiment,w,w,305.0290207000071
3,17,Male,Right,10,Block 1,1.4879504999989877,0.05,true,tree,tree,occlusion,control,mask,partial viewing,few large,Stimulus\all_stim\occlusion\partialviewing\fewlarge\control\fewlarge_partialViewing_control_tree1.png,mask_img/000000010281.png,experiment,r,r,307.21286990000226
3,17,Male,Right,11,Block 1,0.6893997000006493,0.025,true,bird,bird,occlusion,low,mask,partial viewing,few large,Stimulus\all_stim\occlusion\partialviewing\fewlarge\low\fewlarge_partialViewing_low_bird7.png,mask_img/000000024403.png,experiment,p,p,308.75065149999864
3,17,Male,Right,12,Block 1,0.7343235000007553,0.025,true,bus,bus,occlusion,low,mask,partial viewing,many small,Stimulus\all_stim\occlusion\partialviewing\manysmall\low\manysmall_partialViewing_low_bus9.png,mask_img/000000058910.png,experiment,w,w,310.2864505000034
3,17,Male,Right,13,Block 1,0.6678944000013871,0.05,true,bird,bird,occlusion,low,mask,partial viewing,many small,Stimulus\all_stim\occlusion\partialviewing\manysmall\low\manysmall_partialViewing_low_bird10.png,mask_img/000000055733.png,experiment,p,p,312.05270230000315
3,17,Male,Right,14,Block 1,1.669902000008733,0.125,true,person,person,occlusion,high,mask,partial viewing,few large,Stimulus\all_stim\occlusion\partialviewing\fewlarge\high\fewlarge_partialViewing_high_person5.png,mask_img/000000020381.png,experiment,i,i,314.3968159000069
3,17,Male,Right,15,Block 1,0.8259528000053251,0.125,true,bus,bus,occlusion,control,mask,partial viewing,many small,Stimulus\all_stim\occlusion\partialviewing\manysmall\control\manysmall_partialViewing_control_bus10.png,mask_img/000000036482.png,experiment,w,w,315.9966296000057
3,17,Male,Right,16,Block 1,0.6694438999984413,0.025,true,building,building,occlusion,control,mask,partial viewing,many small,Stimulus\all_stim\occlusion\partialviewing\manysmall\control\manysmall_partialViewing_control_building2.png,mask_img/000000035864.png,experiment,q,q,317.6448017000075
3,17,Male,Right,17,Block 1,1.5729775999934645,0.05,false,person,cat,occlusion,high,mask,partial viewing,many small,Stimulus\all_stim\occlusion\partialviewing\manysmall\high\manysmall_partialViewing_high_person8.png,mask_img/000000052606.png,experiment,o,i,319.9966543000046
3,17,Male,Right,18,Block 1,0.8779760000034003,0.025,true,tree,tree,occlusion,control,mask,partial viewing,few large,Stimulus\all_stim\occlusion\partialviewing\fewlarge\control\fewlarge_partialViewing_control_tree10.png,mask_img/000000010414.png,experiment,r,r,321.67690780000703
3,17,Male,Right,19,Block 1,0.8741934999998193,0.125,true,bus,bus,occlusion,high,mask,partial viewing,many small,Stimulus\all_stim\occlusion\partialviewing\manysmall\high\manysmall_partialViewing_high_bus1.png,mask_img/000000046676.png,experiment,w,w,323.4688749000052
3,17,Male,Right,20,Block 1,1.3604718999995384,0.025,false,bird,person,occlusion,low,mask,partial viewing,many small,Stimulus\all_stim\occlusion\partialviewing\manysmall\low\manysmall_partialViewing_low_bird3.png,mask_img/000000055849.png,experiment,i,p,325.8046308000048
3,17,Male,Right,21,Block 1,0.8341532000049483,0.125,true,person,person,occlusion,high,mask,partial viewing,few large,Stimulus\all_stim\occlusion\partialviewing\fewlarge\high\fewlarge_partialViewing_high_person2.png,mask_img/000000019932.png,experiment,i,i,327.74896160000935
3,17,Male,Right,22,Block 1,0.7227397999959067,0.125,true,person,person,occlusion,control,mask,partial viewing,few large,Stimulus\all_stim\occlusion\partialviewing\fewlarge\control\fewlarge_partialViewing_control_person4.png,mask_img/000000009178.png,experiment,i,i,329.5009022000013
3,17,Male,Right,23,Block 1,0.6120104000001447,0.125,true,person,person,occlusion,control,mask,partial viewing,few large,Stimulus\all_stim\occlusion\partialviewing\fewlarge\control\fewlarge_partialViewing_control_person7.png,mask_img/000000009648.png,experiment,i,i,331.0089621000079
3,17,Male,Right,24,Block 1,0.5072710999957053,0.125,true,person,person,occlusion,control,mask,partial viewing,few large,Stimulus\all_stim\occlusion\partialviewing\fewlarge\control\fewlarge_partialViewing_control_person8.png,mask_img/000000009729.png,experiment,i,i,332.49397340000723
3,17,Male,Right,25,Block 1,0.7993332000041846,0.025,true,banana,banana,occlusion,control,mask,partial viewing,many small,Stimulus\all_stim\occlusion\partialviewing\manysmall\control\manysmall_partialViewing_control_banana5.png,mask_img/000000033669.png,experiment,e,e,334.2054932000028
3,17,Male,Right,26,Block 1,0.7088557000097353,0.125,true,tree,tree,occlusion,low,mask,partial viewing,few large,Stimulus\all_stim\occlusion\partialviewing\fewlarge\low\fewlarge_partialViewing_low_tree4.png,mask_img/000000032364.png,experiment,r,r,335.83669799999916
3,17,Male,Right,27,Block 1,0.508370499999728,0.05,true,tree,tree,occlusion,high,mask,partial viewing,few large,Stimulus\all_stim\occlusion\partialviewing\fewlarge\high\fewlarge_partialViewing_high_tree10.png,mask_img/000000021419.png,experiment,r,r,337.4445418999967
3,17,Male,Right,28,Block 1,0.7970217999973102,0.05,true,bird,bird,occlusion,control,mask,partial viewing,many small,Stimulus\all_stim\occlusion\partialviewing\manysmall\control\manysmall_partialViewing_control_bird4.png,mask_img/000000034691.png,experiment,p,p,339.17312279999896
3,17,Male,Right,29,Block 1,1.1088716999947792,0.125,false,firehydrant,cat,occlusion,high,mask,partial viewing,few large,Stimulus\all_stim\occlusion\partialviewing\fewlarge\high\fewlarge_partialViewing_high_firehydrant1.png,mask_img/000000017944.png,experiment,o,u,341.2846778999956
3,17,Male,Right,30,Block 1,1.4539805999957025,0.05,true,bird,bird,occlusion,low,mask,partial viewing,few large,Stimulus\all_stim\occlusion\partialviewing\fewlarge\low\fewlarge_partialViewing_low_bird3.png,mask_img/000000024157.png,experiment,p,p,343.74067050000303
3,17,Male,Right,31,Block 1,1.4232597999944119,0.05,true,cat,cat,occlusion,control,mask,partial viewing,few large,Stimulus\all_stim\occlusion\partialviewing\fewlarge\control\fewlarge_partialViewing_control_cat8.png,mask_img/000000007393.png,experiment,o,o,345.9967616000067
3,17,Male,Right,32,Block 1,0.9570585999899777,0.125,true,cat,cat,occlusion,control,mask,partial viewing,many small,Stimulus\all_stim\occlusion\partialviewing\manysmall\control\manysmall_partialViewing_control_cat8.png,mask_img/000000038817.png,experiment,o,o,347.78091430000495
3,17,Male,Right,33,Block 1,0.6866972999996506,0.05,true,bird,bird,occlusion,control,mask,partial viewing,many small,Stimulus\all_stim\occlusion\partialviewing\manysmall\control\manysmall_partialViewing_control_bird9.png,mask_img/000000035514.png,experiment,p,p,349.54868170000555
3,17,Male,Right,34,Block 1,2.1227424000098836,0.125,true,firehydrant,firehydrant,occlusion,control,mask,partial viewing,few large,Stimulus\all_stim\occlusion\partialviewing\fewlarge\control\fewlarge_partialViewing_control_firehydrant6.png,mask_img/000000008025.png,experiment,u,u,352.62109880000935
3,17,Male,Right,35,Block 1,0.6002448999934131,0.025,true,firehydrant,firehydrant,occlusion,high,mask,partial viewing,few large,Stimulus\all_stim\occlusion\partialviewing\fewlarge\high\fewlarge_partialViewing_high_firehydrant7.png,mask_img/000000019463.png,experiment,u,u,354.06881290000456
3,17,Male,Right,36,Block 1,0.9590407999930903,0.05,true,banana,banana,occlusion,high,mask,partial viewing,many small,Stimulus\all_stim\occlusion\partialviewing\manysmall\high\manysmall_partialViewing_high_banana6.png,mask_img/000000042704.png,experiment,e,e,355.8848227999988
3,17,Male,Right,37,Block 1,1.2894641999882879,0.125,true,banana,banana,occlusion,control,mask,partial viewing,few large,Stimulus\all_stim\occlusion\partialviewing\fewlarge\control\fewlarge_partialViewing_control_banana3.png,mask_img/000000000394.png,experiment,e,e,357.90259280000464
3,17,Male,Right,38,Block 1,0.769053600000916,0.125,true,firehydrant,firehydrant,occlusion,low,mask,partial viewing,few large,Stimulus\all_stim\occlusion\partialviewing\fewlarge\low\fewlarge_partialViewing_low_firehydrant1.png,mask_img/000000028304.png,experiment,u,u,359.7327837000048
3,17,Male,Right,39,Block 1,1.216836499996134,0.025,true,tree,tree,occlusion,high,mask,partial viewing,few large,Stimulus\all_stim\occlusion\partialviewing\fewlarge\high\fewlarge_partialViewing_high_tree10.png,mask_img/000000021419.png,experiment,r,r,361.9409891999967
3,17,Male,Right,40,Block 1,1.003030799998669,0.025,true,banana,banana,occlusion,control,mask,partial viewing,many small,Stimulus\all_stim\occlusion\partialviewing\manysmall\control\manysmall_partialViewing_control_banana7.png,mask_img/000000033861.png,experiment,e,e,364.012782100006
3,17,Male,Right,41,Block 1,1.3493396999983815,0.05,false,banana,cat,occlusion,high,mask,partial viewing,many small,Stimulus\all_stim\occlusion\partialviewing\manysmall\high\manysmall_partialViewing_high_banana5.png,mask_img/000000042541.png,experiment,o,e,366.2527621000045
3,17,Male,Right,42,Block 1,0.7797155000007479,0.025,true,firehydrant,firehydrant,occlusion,control,mask,partial viewing,many small,Stimulus\all_stim\occlusion\partialviewing\manysmall\control\manysmall_partialViewing_control_firehydrant9.png,mask_img/000000039643.png,experiment,u,u,367.7647522000043
3,17,Male,Right,43,Block 1,1.2634689999977127,0.125,true,person,person,occlusion,low,mask,partial viewing,few large,Stimulus\all_stim\occlusion\partialviewing\fewlarge\low\fewlarge_partialViewing_low_person10.png,mask_img/000000029128.png,experiment,i,i,370.01273729999957
3,17,Male,Right,44,Block 1,0.82751279999502,0.125,true,cat,cat,occlusion,control,mask,partial viewing,many small,Stimulus\all_stim\occlusion\partialviewing\manysmall\control\manysmall_partialViewing_control_cat2.png,mask_img/000000038375.png,experiment,o,o,371.57284540000546
3,17,Male,Right,45,Block 1,0.8843441999924835,0.125,true,bird,bird,occlusion,low,mask,partial viewing,many small,Stimulus\all_stim\occlusion\partialviewing\manysmall\low\manysmall_partialViewing_low_bird8.png,mask_img/000000056137.png,experiment,p,p,373.54865569999674
3,17,Male,Right,46,Block 1,0.8071425000089221,0.125,false,person,firehydrant,occlusion,high,mask,partial viewing,few large,Stimulus\all_stim\occlusion\partialviewing\fewlarge\high\fewlarge_partialViewing_high_person3.png,mask_img/000000020147.png,experiment,u,i,375.0844442000089
3,17,Male,Right,47,Block 1,0.7610156000009738,0.05,false,tree,banana,occlusion,low,mask,partial viewing,few large,Stimulus\all_stim\occlusion\partialviewing\fewlarge\low\fewlarge_partialViewing_low_tree8.png,mask_img/000000032918.png,experiment,e,r,376.6530805000075
3,17,Male,Right,48,Block 1,1.0644040999904973,0.025,true,tree,tree,occlusion,control,mask,partial viewing,many small,Stimulus\all_stim\occlusion\partialviewing\manysmall\control\manysmall_partialViewing_control_tree4.png,mask_img/000000041022.png,experiment,r,r,378.6369362999976
3,17,Male,Right,49,Block 1,1.0689453999948455,0.125,false,firehydrant,person,occlusion,high,mask,partial viewing,few large,Stimulus\all_stim\occlusion\partialviewing\fewlarge\high\fewlarge_partialViewing_high_firehydrant4.png,mask_img/000000018882.png,experiment,i,u,380.4606897000049
3,17,Male,Right,50,Block 1,0.6766885999968508,0.05,true,banana,banana,occlusion,high,mask,partial viewing,few large,Stimulus\all_stim\occlusion\partialviewing\fewlarge\high\fewlarge_partialViewing_high_banana4.png,mask_img/000000012377.png,experiment,e,e,382.1087275000027
3,17,Male,Right,51,Block 1,0.8232273000030546,0.025,true,banana,banana,occlusion,high,mask,partial viewing,few large,Stimulus\all_stim\occlusion\partialviewing\fewlarge\high\fewlarge_partialViewing_high_banana9.png,mask_img/000000012999.png,experiment,e,e,383.9404949000018
3,17,Male,Right,52,Block 1,0.7335609000001568,0.125,true,building,building,occlusion,low,mask,partial viewing,few large,Stimulus\all_stim\occlusion\partialviewing\fewlarge\low\fewlarge_partialViewing_low_building2.png,mask_img/000000024702.png,experiment,q,q,385.7165271999984
3,17,Male,Right,53,Block 1,1.0673387999995612,0.125,true,cat,cat,occlusion,low,mask,partial viewing,few large,Stimulus\all_stim\occlusion\partialviewing\fewlarge\low\fewlarge_partialViewing_low_cat9.png,mask_img/000000028231.png,experiment,o,o,387.8289960999973
3,17,Male,Right,54,Block 1,0.820489899997483,0.05,true,cat,cat,occlusion,low,mask,partial viewing,few large,Stimulus\all_stim\occlusion\partialviewing\fewlarge\low\fewlarge_partialViewing_low_cat8.png,mask_img/000000028171.png,experiment,o,o,389.74863390000246
3,17,Male,Right,55,Block 1,1.209157299992512,0.025,true,tree,tree,occlusion,low,mask,partial viewing,few large,Stimulus\all_stim\occlusion\partialviewing\fewlarge\low\fewlarge_partialViewing_low_tree10.png,mask_img/000000031454.png,experiment,r,r,392.0053962999955
3,17,Male,Right,56,Block 1,0.6637263000011444,0.125,true,bus,bus,occlusion,low,mask,partial viewing,few large,Stimulus\all_stim\occlusion\partialviewing\fewlarge\low\fewlarge_partialViewing_low_bus6.png,mask_img/000000026503.png,experiment,w,w,393.34840200000326
3,17,Male,Right,57,Block 1,0.6157161000010092,0.05,true,bus,bus,occlusion,low,mask,partial viewing,many small,Stimulus\all_stim\occlusion\partialviewing\manysmall\low\manysmall_partialViewing_low_bus1.png,mask_img/000000058232.png,experiment,w,w,394.66868930000055
3,17,Male,Right,58,Block 1,1.5263605999934953,0.125,true,cat,cat,occlusion,low,mask,partial viewing,few large,Stimulus\all_stim\occlusion\partialviewing\fewlarge\low\fewlarge_partialViewing_low_cat7.png,mask_img/000000027890.png,experiment,o,o,396.9086738000042
3,17,Male,Right,59,Block 1,0.7094804999942426,0.025,false,bird,cat,occlusion,high,mask,partial viewing,many small,Stimulus\all_stim\occlusion\partialviewing\manysmall\high\manysmall_partialViewing_high_bird4.png,mask_img/000000044136.png,experiment,o,p,398.58850340000936
3,17,Male,Right,60,Block 1,0.8331027999956859,0.125,true,banana,banana,occlusion,high,mask,partial viewing,few large,Stimulus\all_stim\occlusion\partialviewing\fewlarge\high\fewlarge_partialViewing_high_banana1.png,mask_img/000000011754.png,experiment,e,e,400.0930354000011
3,17,Male,Right,61,Block 1,0.7718441999895731,0.05,true,firehydrant,firehydrant,occlusion,low,mask,partial viewing,many small,Stimulus\all_stim\occlusion\partialviewing\manysmall\low\manysmall_partialViewing_low_firehydrant1.png,mask_img/000000060464.png,experiment,u,u,401.99680239999725
3,17,Male,Right,62,Block 1,0.9015278000006219,0.125,true,banana,banana,occlusion,control,mask,partial viewing,few large,Stimulus\all_stim\occlusion\partialviewing\fewlarge\control\fewlarge_partialViewing_control_banana2.png,mask_img/000000000312.png,experiment,e,e,403.7805808999983
3,17,Male,Right,63,Block 1,0.8708966999984113,0.025,true,cat,cat,occlusion,control,mask,partial viewing,many small,Stimulus\all_stim\occlusion\partialviewing\manysmall\control\manysmall_partialViewing_control_cat5.png,mask_img/000000038601.png,experiment,o,o,405.460439100003
3,17,Male,Right,64,Block 1,1.2200691000034567,0.025,false,cat,person,occlusion,high,mask,partial viewing,few large,Stimulus\all_stim\occlusion\partialviewing\fewlarge\high\fewlarge_partialViewing_high_cat5.png,mask_img/000000017409.png,experiment,i,o,407.50868840000476
3,17,Male,Right,65,Block 1,0.6866269000020111,0.025,false,cat,person,occlusion,high,mask,partial viewing,many small,Stimulus\all_stim\occlusion\partialviewing\manysmall\high\manysmall_partialViewing_high_cat4.png,mask_img/000000049331.png,experiment,i,o,409.00434870000754
3,17,Male,Right,66,Block 1,0.8553071999922395,0.025,true,tree,tree,occlusion,high,mask,partial viewing,many small,Stimulus\all_stim\occlusion\partialviewing\manysmall\high\manysmall_partialViewing_high_tree4.png,mask_img/000000053143.png,experiment,r,r,410.8205084000074
3,17,Male,Right,67,Block 1,0.7047100000054343,0.025,true,cat,cat,occlusion,low,mask,partial viewing,many small,Stimulus\all_stim\occlusion\partialviewing\manysmall\low\manysmall_partialViewing_low_cat5.png,mask_img/000000059660.png,experiment,o,o,412.38843839999754
3,17,Male,Right,68,Block 1,1.2107025000004796,0.125,true,building,building,occlusion,control,mask,partial viewing,many small,Stimulus\all_stim\occlusion\partialviewing\manysmall\control\manysmall_partialViewing_control_building9.png,mask_img/000000036226.png,experiment,q,q,414.300636400003
3,17,Male,Right,69,Block 1,0.5389541000040481,0.025,false,person,cat,occlusion,low,mask,partial viewing,few large,Stimulus\all_stim\occlusion\partialviewing\fewlarge\low\fewlarge_partialViewing_low_person2.png,mask_img/000000029274.png,experiment,o,i,415.74000479999813
3,17,Male,Right,70,Block 1,0.5789044999983162,0.025,true,building,building,occlusion,control,mask,partial viewing,many small,Stimulus\all_stim\occlusion\partialviewing\manysmall\control\manysmall_partialViewing_control_building4.png,mask_img/000000035985.png,experiment,q,q,417.3406329999998
3,17,Male,Right,71,Block 1,0.5001923999952851,0.125,true,building,building,occlusion,low,mask,partial viewing,few large,Stimulus\all_stim\occlusion\partialviewing\fewlarge\low\fewlarge_partialViewing_low_building1.png,mask_img/000000024552.png,experiment,q,q,418.5747887000034
3,17,Male,Right,72,Block 1,1.6019436999922618,0.125,false,banana,tree,occlusion,high,mask,partial viewing,many small,Stimulus\all_stim\occlusion\partialviewing\manysmall\high\manysmall_partialViewing_high_banana9.png,mask_img/000000043579.png,experiment,r,e,420.8371327000059
3,17,Male,Right,73,Block 1,0.6213922000024468,0.125,false,banana,tree,occlusion,high,mask,partial viewing,few large,Stimulus\all_stim\occlusion\partialviewing\fewlarge\high\fewlarge_partialViewing_high_banana2.png,mask_img/000000012179.png,experiment,r,e,422.54234690000885
3,17,Male,Right,74,Block 1,0.526206499998807,0.05,true,banana,banana,occlusion,control,mask,partial viewing,few large,Stimulus\all_stim\occlusion\partialviewing\fewlarge\control\fewlarge_partialViewing_control_banana9.png,mask_img/000000000731.png,experiment,e,e,423.8596166000061
3,17,Male,Right,75,Block 1,0.6673874000116484,0.125,true,building,building,occlusion,control,mask,partial viewing,few large,Stimulus\all_stim\occlusion\partialviewing\fewlarge\control\fewlarge_partialViewing_control_building1.png,mask_img/000000003084.png,experiment,q,q,425.6436642000044
3,17,Male,Right,76,Block 1,0.9367974999913713,0.025,true,firehydrant,firehydrant,occlusion,low,mask,partial viewing,many small,Stimulus\all_stim\occlusion\partialviewing\manysmall\low\manysmall_partialViewing_low_firehydrant10.png,mask_img/000000060529.png,experiment,u,u,427.30860499999835
3,17,Male,Right,77,Block 1,0.6159435000008671,0.125,true,building,building,occlusion,control,mask,partial viewing,few large,Stimulus\all_stim\occlusion\partialviewing\fewlarge\control\fewlarge_partialViewing_control_building9.png,mask_img/000000005131.png,experiment,q,q,428.6784672000067
3,17,Male,Right,78,Block 1,0.5200634000066202,0.125,true,building,building,occlusion,high,mask,partial viewing,few large,Stimulus\all_stim\occlusion\partialviewing\fewlarge\high\fewlarge_partialViewing_high_building7.png,mask_img/000000015155.png,experiment,q,q,430.2794050000084
3,17,Male,Right,79,Block 1,0.5258027999952901,0.05,true,building,building,occlusion,high,mask,partial viewing,many small,Stimulus\all_stim\occlusion\partialviewing\manysmall\high\manysmall_partialViewing_high_building6.png,mask_img/000000046155.png,experiment,q,q,431.7458811999968
3,17,Male,Right,80,Block 1,0.7812602999911178,0.05,true,firehydrant,firehydrant,occlusion,low,mask,partial viewing,many small,Stimulus\all_stim\occlusion\partialviewing\manysmall\low\manysmall_partialViewing_low_firehydrant5.png,mask_img/000000060623.png,experiment,u,u,433.245318900008
3,17,Male,Right,81,Block 1,0.6265984999918146,0.05,true,building,building,occlusion,high,mask,partial viewing,many small,Stimulus\all_stim\occlusion\partialviewing\manysmall\high\manysmall_partialViewing_high_building2.png,mask_img/000000045306.png,experiment,q,q,434.7326721999998
3,17,Male,Right,82,Block 1,0.6936898999992991,0.05,true,firehydrant,firehydrant,occlusion,low,mask,partial viewing,many small,Stimulus\all_stim\occlusion\partialviewing\manysmall\low\manysmall_partialViewing_low_firehydrant6.png,mask_img/000000060647.png,experiment,u,u,436.5168585000065
3,17,Male,Right,83,Block 1,0.5946915000095032,0.05,true,banana,banana,occlusion,high,mask,partial viewing,few large,Stimulus\all_stim\occlusion\partialviewing\fewlarge\high\fewlarge_partialViewing_high_banana9.png,mask_img/000000012999.png,experiment,e,e,437.8314126000041
3,17,Male,Right,84,Block 1,0.6658868999948027,0.025,true,building,building,occlusion,control,mask,partial viewing,many small,Stimulus\all_stim\occlusion\partialviewing\manysmall\control\manysmall_partialViewing_control_building5.png,mask_img/000000036004.png,experiment,q,q,439.1569051999977
3,17,Male,Right,85,Block 1,0.6560848000081023,0.025,true,person,person,occlusion,high,mask,partial viewing,few large,Stimulus\all_stim\occlusion\partialviewing\fewlarge\high\fewlarge_partialViewing_high_person4.png,mask_img/000000020202.png,experiment,i,i,440.51693969999906
3,17,Male,Right,86,Block 1,0.6525647999951616,0.125,true,bird,bird,occlusion,control,mask,partial viewing,many small,Stimulus\all_stim\occlusion\partialviewing\manysmall\control\manysmall_partialViewing_control_bird10.png,mask_img/000000034304.png,experiment,p,p,442.03301810000266
3,17,Male,Right,87,Block 1,0.5514828000013949,0.125,true,bus,bus,occlusion,control,mask,partial viewing,many small,Stimulus\all_stim\occlusion\partialviewing\manysmall\control\manysmall_partialViewing_control_bus1.png,mask_img/000000036255.png,experiment,w,w,443.5168321999954
3,17,Male,Right,88,Block 1,0.7369582000101218,0.05,true,tree,tree,occlusion,control,mask,partial viewing,many small,Stimulus\all_stim\occlusion\partialviewing\manysmall\control\manysmall_partialViewing_control_tree7.png,mask_img/000000041434.png,experiment,r,r,445.17251089999627
3,17,Male,Right,89,Block 1,0.7334896999964258,0.125,false,person,firehydrant,occlusion,low,mask,partial viewing,many small,Stimulus\all_stim\occlusion\partialviewing\manysmall\low\manysmall_partialViewing_low_person4.png,mask_img/000000062131.png,experiment,u,i,446.76478340000904
3,17,Male,Right,90,Block 1,0.6272769999923185,0.025,true,person,person,occlusion,control,mask,partial viewing,many small,Stimulus\all_stim\occlusion\partialviewing\manysmall\control\manysmall_partialViewing_control_person7.png,mask_img/000000040399.png,experiment,i,i,448.45288110000547
3,17,Male,Right,91,Block 1,0.5106872999895131,0.025,false,firehydrant,person,occlusion,high,mask,partial viewing,few large,Stimulus\all_stim\occlusion\partialviewing\fewlarge\high\fewlarge_partialViewing_high_firehydrant1.png,mask_img/000000017944.png,experiment,i,u,449.8025523999968
3,17,Male,Right,92,Block 1,0.6595560999994632,0.125,true,tree,tree,occlusion,control,mask,partial viewing,few large,Stimulus\all_stim\occlusion\partialviewing\fewlarge\control\fewlarge_partialViewing_control_tree8.png,mask_img/000000011544.png,experiment,r,r,451.31967959999747
3,17,Male,Right,93,Block 1,0.7520039000082761,0.125,false,cat,bird,occlusion,low,mask,partial viewing,few large,Stimulus\all_stim\occlusion\partialviewing\fewlarge\low\fewlarge_partialViewing_low_cat5.png,mask_img/000000027704.png,experiment,p,o,453.00566690000414
3,17,Male,Right,94,Block 1,1.2691548000002513,0.125,false,banana,bus,occlusion,high,mask,partial viewing,many small,Stimulus\all_stim\occlusion\partialviewing\manysmall\high\manysmall_partialViewing_high_banana3.png,mask_img/000000042476.png,experiment,w,e,455.1169854000036
3,17,Male,Right,95,Block 1,0.6135546000004979,0.05,true,tree,tree,occlusion,control,mask,partial viewing,many small,Stimulus\all_stim\occlusion\partialviewing\manysmall\control\manysmall_partialViewing_control_tree8.png,mask_img/000000041577.png,experiment,r,r,456.89268730000185
3,17,Male,Right,96,Block 1,1.5904253000044264,0.05,true,firehydrant,firehydrant,occlusion,high,mask,partial viewing,many small,Stimulus\all_stim\occlusion\partialviewing\manysmall\high\manysmall_partialViewing_high_firehydrant5.png,mask_img/000000050496.png,experiment,u,u,459.3329516000085
3,17,Male,Right,97,Block 1,0.8580715999996755,0.05,true,person,person,occlusion,low,mask,partial viewing,many small,Stimulus\all_stim\occlusion\partialviewing\manysmall\low\manysmall_partialViewing_low_person3.png,mask_img/000000062128.png,experiment,i,i,460.9889189999958
3,17,Male,Right,98,Block 1,0.6715966999909142,0.125,true,firehydrant,firehydrant,occlusion,control,mask,partial viewing,many small,Stimulus\all_stim\occlusion\partialviewing\manysmall\control\manysmall_partialViewing_control_firehydrant2.png,mask_img/000000039089.png,experiment,u,u,462.7904006000026
3,17,Male,Right,99,Block 1,0.9185272000031546,0.025,true,firehydrant,firehydrant,occlusion,high,mask,partial viewing,many small,Stimulus\all_stim\occlusion\partialviewing\manysmall\high\manysmall_partialViewing_high_firehydrant3.png,mask_img/000000050276.png,experiment,u,u,464.50083060000907
3,17,Male,Right,100,Block 1,0.7425550999905681,0.05,true,bus,bus,occlusion,low,mask,partial viewing,few large,Stimulus\all_stim\occlusion\partialviewing\fewlarge\low\fewlarge_partialViewing_low_bus7.png,mask_img/000000026720.png,experiment,w,w,466.05290730000706
3,17,Male,Right,101,Block 1,0.6688025000039488,0.025,false,cat,bird,occlusion,low,mask,partial viewing,few large,Stimulus\all_stim\occlusion\partialviewing\fewlarge\low\fewlarge_partialViewing_low_cat2.png,mask_img/000000027371.png,experiment,p,o,467.4927335999964
3,17,Male,Right,102,Block 1,0.8789682999922661,0.025,true,tree,tree,occlusion,low,mask,partial viewing,many small,Stimulus\all_stim\occlusion\partialviewing\manysmall\low\manysmall_partialViewing_low_tree3.png,mask_img/000000063147.png,experiment,r,r,469.14876290000393
3,17,Male,Right,103,Block 1,0.6122956000035629,0.025,false,person,firehydrant,occlusion,control,mask,partial viewing,few large,Stimulus\all_stim\occlusion\partialviewing\fewlarge\control\fewlarge_partialViewing_control_person3.png,mask_img/000000008920.png,experiment,u,i,470.52483579999534
3,17,Male,Right,104,Block 1,0.5146814000036102,0.05,true,banana,banana,occlusion,low,mask,partial viewing,few large,Stimulus\all_stim\occlusion\partialviewing\fewlarge\low\fewlarge_partialViewing_low_banana2.png,mask_img/000000022983.png,experiment,e,e,471.9106635000062
3,17,Male,Right,105,Block 1,0.6838107999938074,0.05,true,tree,tree,occlusion,high,mask,partial viewing,few large,Stimulus\all_stim\occlusion\partialviewing\fewlarge\high\fewlarge_partialViewing_high_tree7.png,mask_img/000000022256.png,experiment,r,r,473.3613458000036
3,17,Male,Right,106,Block 1,0.7439859000005526,0.025,true,firehydrant,firehydrant,occlusion,low,mask,partial viewing,few large,Stimulus\all_stim\occlusion\partialviewing\fewlarge\low\fewlarge_partialViewing_low_firehydrant9.png,mask_img/000000029056.png,experiment,u,u,474.8927607000078
3,17,Male,Right,107,Block 1,0.6651703999959864,0.125,true,bus,bus,occlusion,high,mask,partial viewing,few large,Stimulus\all_stim\occlusion\partialviewing\fewlarge\high\fewlarge_partialViewing_high_bus9.png,mask_img/000000016764.png,experiment,w,w,476.6623181000032
3,17,Male,Right,108,Block 1,0.6686621999979252,0.025,false,bird,person,occlusion,low,mask,partial viewing,many small,Stimulus\all_stim\occlusion\partialviewing\manysmall\low\manysmall_partialViewing_low_bird4.png,mask_img/000000055859.png,experiment,i,p,478.13274499999534
3,17,Male,Right,109,Block 1,0.5234238999983063,0.125,true,person,person,occlusion,high,mask,partial viewing,few large,Stimulus\all_stim\occlusion\partialviewing\fewlarge\high\fewlarge_partialViewing_high_person6.png,mask_img/000000020392.png,experiment,i,i,479.5634090999956
3,17,Male,Right,110,Block 1,0.9899509999959264,0.125,false,bus,firehydrant,occlusion,high,mask,partial viewing,many small,Stimulus\all_stim\occlusion\partialviewing\manysmall\high\manysmall_partialViewing_high_bus9.png,mask_img/000000048268.png,experiment,u,w,481.4768058000045
3,17,Male,Right,111,Block 1,0.8310632999928202,0.025,false,firehydrant,person,occlusion,high,mask,partial viewing,few large,Stimulus\all_stim\occlusion\partialviewing\fewlarge\high\fewlarge_partialViewing_high_firehydrant4.png,mask_img/000000018882.png,experiment,i,u,483.4204608
3,17,Male,Right,112,Block 1,0.8150963000080083,0.125,true,banana,banana,occlusion,control,mask,partial viewing,few large,Stimulus\all_stim\occlusion\partialviewing\fewlarge\control\fewlarge_partialViewing_control_banana8.png,mask_img/000000000690.png,experiment,e,e,485.05271340000036
3,17,Male,Right,113,Block 1,0.7015022999985376,0.125,true,building,building,occlusion,low,mask,partial viewing,many small,Stimulus\all_stim\occlusion\partialviewing\manysmall\low\manysmall_partialViewing_low_building10.png,mask_img/000000057068.png,experiment,q,q,486.5165407000022
3,17,Male,Right,114,Block 1,0.6812306000065291,0.05,true,person,person,occlusion,high,mask,partial viewing,few large,Stimulus\all_stim\occlusion\partialviewing\fewlarge\high\fewlarge_partialViewing_high_person2.png,mask_img/000000019932.png,experiment,i,i,487.93480600000476
3,17,Male,Right,115,Block 1,0.6519419999967795,0.025,true,building,building,occlusion,control,mask,partial viewing,few large,Stimulus\all_stim\occlusion\partialviewing\fewlarge\control\fewlarge_partialViewing_control_building9.png,mask_img/000000005131.png,experiment,q,q,489.42096650000894
3,17,Male,Right,116,Block 1,0.6317081000015605,0.025,false,firehydrant,person,occlusion,control,mask,partial viewing,few large,Stimulus\all_stim\occlusion\partialviewing\fewlarge\control\fewlarge_partialViewing_control_firehydrant9.png,mask_img/000000008329.png,experiment,i,u,490.99679879999894
3,17,Male,Right,117,Block 1,0.7310550999973202,0.125,true,bird,bird,occlusion,control,mask,partial viewing,few large,Stimulus\all_stim\occlusion\partialviewing\fewlarge\control\fewlarge_partialViewing_control_bird6.png,mask_img/000000002337.png,experiment,p,p,492.5336043999996
3,17,Male,Right,118,Block 1,0.9488456999970367,0.125,true,person,person,occlusion,control,mask,partial viewing,few large,Stimulus\all_stim\occlusion\partialviewing\fewlarge\control\fewlarge_partialViewing_control_person5.png,mask_img/000000009286.png,experiment,i,i,494.2306349999999
3,17,Male,Right,119,Block 1,0.8940942999906838,0.025,false,firehydrant,bus,occlusion,high,mask,partial viewing,many small,Stimulus\all_stim\occlusion\partialviewing\manysmall\high\manysmall_partialViewing_high_firehydrant10.png,mask_img/000000050148.png,experiment,w,u,496.0528783000045
3,17,Male,Right,120,Block 1,0.633737199997995,0.025,true,cat,cat,occlusion,high,mask,partial viewing,few large,Stimulus\all_stim\occlusion\partialviewing\fewlarge\high\fewlarge_partialViewing_high_cat4.png,mask_img/000000017364.png,experiment,o,o,497.54065520000586
3,17,Male,Right,121,Block 1,1.376203899999382,0.125,true,building,building,occlusion,low,mask,partial viewing,few large,Stimulus\all_stim\occlusion\partialviewing\fewlarge\low\fewlarge_partialViewing_low_building5.png,mask_img/000000025034.png,experiment,q,q,499.7567679000058
3,17,Male,Right,122,Block 1,0.47096930000407156,0.025,true,building,building,occlusion,control,mask,partial viewing,many small,Stimulus\all_stim\occlusion\partialviewing\manysmall\control\manysmall_partialViewing_control_building6.png,mask_img/000000036006.png,experiment,q,q,501.10655140000745
3,17,Male,Right,123,Block 1,0.625269299998763,0.05,false,firehydrant,person,occlusion,control,mask,partial viewing,few large,Stimulus\all_stim\occlusion\partialviewing\fewlarge\control\fewlarge_partialViewing_control_firehydrant6.png,mask_img/000000008025.png,experiment,i,u,502.6207604000083
3,17,Male,Right,124,Block 1,0.7884476000035647,0.05,false,bus,banana,occlusion,low,mask,partial viewing,few large,Stimulus\all_stim\occlusion\partialviewing\fewlarge\low\fewlarge_partialViewing_low_bus4.png,mask_img/000000026053.png,experiment,e,w,504.1728032999963
3,17,Male,Right,125,Block 1,1.1075166999944486,0.125,false,tree,banana,occlusion,low,mask,partial viewing,many small,Stimulus\all_stim\occlusion\partialviewing\manysmall\low\manysmall_partialViewing_low_tree1.png,mask_img/000000062690.png,experiment,e,r,506.1329795000056
3,17,Male,Right,126,Block 1,0.7441513999947347,0.05,true,building,building,occlusion,low,mask,partial viewing,few large,Stimulus\all_stim\occlusion\partialviewing\fewlarge\low\fewlarge_partialViewing_low_building8.png,mask_img/000000025453.png,experiment,q,q,507.6927882000018
3,17,Male,Right,127,Block 1,0.7473960000061197,0.025,true,cat,cat,occlusion,low,mask,partial viewing,many small,Stimulus\all_stim\occlusion\partialviewing\manysmall\low\manysmall_partialViewing_low_cat9.png,mask_img/000000060387.png,experiment,o,o,509.11671200000274
3,17,Male,Right,128,Block 1,0.840714999998454,0.125,true,building,building,occlusion,high,mask,partial viewing,few large,Stimulus\all_stim\occlusion\partialviewing\fewlarge\high\fewlarge_partialViewing_high_building10.png,mask_img/000000014428.png,experiment,q,q,510.7329452999984
3,17,Male,Right,129,Block 1,0.7470833999977913,0.025,false,bus,building,occlusion,high,mask,partial viewing,few large,Stimulus\all_stim\occlusion\partialviewing\fewlarge\high\fewlarge_partialViewing_high_bus3.png,mask_img/000000015908.png,experiment,q,w,512.524874900002
3,17,Male,Right,130,Block 1,0.6858215999964159,0.125,true,tree,tree,occlusion,control,mask,partial viewing,few large,Stimulus\all_stim\occlusion\partialviewing\fewlarge\control\fewlarge_partialViewing_control_tree10.png,mask_img/000000010414.png,experiment,r,r,514.0929802000028
3,17,Male,Right,131,Block 1,0.6055898999911733,0.025,true,building,building,occlusion,low,mask,partial viewing,few large,Stimulus\all_stim\occlusion\partialviewing\fewlarge\low\fewlarge_partialViewing_low_building6.png,mask_img/000000025143.png,experiment,q,q,515.532654900002
3,17,Male,Right,132,Block 1,0.8126723000023048,0.125,false,bus,banana,occlusion,control,mask,partial viewing,few large,Stimulus\all_stim\occlusion\partialviewing\fewlarge\control\fewlarge_partialViewing_control_bus5.png,mask_img/000000005615.png,experiment,e,w,517.4529165999993
3,17,Male,Right,133,Block 1,1.1280104000034044,0.05,true,cat,cat,occlusion,low,mask,partial viewing,few large,Stimulus\all_stim\occlusion\partialviewing\fewlarge\low\fewlarge_partialViewing_low_cat9.png,mask_img/000000028231.png,experiment,o,o,519.4128523999971
3,17,Male,Right,134,Block 1,0.677380399996764,0.125,true,banana,banana,occlusion,control,mask,partial viewing,few large,Stimulus\all_stim\occlusion\partialviewing\fewlarge\control\fewlarge_partialViewing_control_banana4.png,mask_img/000000000438.png,experiment,e,e,520.9789048000093
3,17,Male,Right,135,Block 1,0.8998842000000877,0.025,false,cat,person,occlusion,low,mask,partial viewing,many small,Stimulus\all_stim\occlusion\partialviewing\manysmall\low\manysmall_partialViewing_low_cat8.png,mask_img/000000060245.png,experiment,i,o,522.6947771999985
3,17,Male,Right,136,Block 1,0.6407349999935832,0.05,false,banana,bus,occlusion,control,mask,partial viewing,few large,Stimulus\all_stim\occlusion\partialviewing\fewlarge\control\fewlarge_partialViewing_control_banana6.png,mask_img/000000000595.png,experiment,w,e,524.2366255000088
3,17,Male,Right,137,Block 1,0.5823371000005864,0.05,true,banana,banana,occlusion,control,mask,partial viewing,many small,Stimulus\all_stim\occlusion\partialviewing\manysmall\control\manysmall_partialViewing_control_banana10.png,mask_img/000000033074.png,experiment,e,e,525.9473972999986
3,17,Male,Right,138,Block 1,0.938557800007402,0.05,true,tree,tree,occlusion,high,mask,partial viewing,many small,Stimulus\all_stim\occlusion\partialviewing\manysmall\high\manysmall_partialViewing_high_tree10.png,mask_img/000000052818.png,experiment,r,r,527.6287595000031
3,17,Male,Right,139,Block 1,0.6178792000137037,0.125,true,banana,banana,occlusion,low,mask,partial viewing,many small,Stimulus\all_stim\occlusion\partialviewing\manysmall\low\manysmall_partialViewing_low_banana2.png,mask_img/000000054759.png,experiment,e,e,528.9500507000048
3,17,Male,Right,140,Block 1,0.7690293000050588,0.05,false,firehydrant,person,occlusion,control,mask,partial viewing,many small,Stimulus\all_stim\occlusion\partialviewing\manysmall\control\manysmall_partialViewing_control_firehydrant2.png,mask_img/000000039089.png,experiment,i,u,530.8047541999986
3,17,Male,Right,141,Block 1,0.9691747000033502,0.025,true,tree,tree,occlusion,high,mask,partial viewing,many small,Stimulus\all_stim\occlusion\partialviewing\manysmall\high\manysmall_partialViewing_high_tree3.png,mask_img/000000052936.png,experiment,r,r,532.460811900004
3,17,Male,Right,142,Block 1,0.9184501999989152,0.05,false,person,tree,occlusion,high,mask,partial viewing,many small,Stimulus\all_stim\occlusion\partialviewing\manysmall\high\manysmall_partialViewing_high_person9.png,mask_img/000000052619.png,experiment,r,i,534.2529820000054
3,17,Male,Right,143,Block 1,0.71340790000977,0.125,true,bus,bus,occlusion,low,mask,partial viewing,many small,Stimulus\all_stim\occlusion\partialviewing\manysmall\low\manysmall_partialViewing_low_bus6.png,mask_img/000000058815.png,experiment,w,w,536.0690688000032
3,17,Male,Right,144,Block 1,0.6026847000030102,0.125,true,bus,bus,occlusion,control,mask,partial viewing,few large,Stimulus\all_stim\occlusion\partialviewing\fewlarge\control\fewlarge_partialViewing_control_bus1.png,mask_img/000000005142.png,experiment,w,w,559.6447098000062
3,17,Male,Right,145,Block 2,0.6571838000090793,0.125,false,firehydrant,person,occlusion,low,mask,partial viewing,many small,Stimulus\all_stim\occlusion\partialviewing\manysmall\low\manysmall_partialViewing_low_firehydrant7.png,mask_img/000000061084.png,experiment,i,u,560.9776806000009
3,17,Male,Right,146,Block 2,0.5336167000059504,0.125,false,banana,bus,occlusion,low,mask,partial viewing,few large,Stimulus\all_stim\occlusion\partialviewing\fewlarge\low\fewlarge_partialViewing_low_banana8.png,mask_img/000000023656.png,experiment,w,e,562.462136800008
3,17,Male,Right,147,Block 2,0.5654122999985702,0.125,true,banana,banana,occlusion,high,mask,partial viewing,many small,Stimulus\all_stim\occlusion\partialviewing\manysmall\high\manysmall_partialViewing_high_banana1.png,mask_img/000000041962.png,experiment,e,e,563.8285899000039
3,17,Male,Right,148,Block 2,0.9843835999927251,0.05,false,firehydrant,person,occlusion,high,mask,partial viewing,many small,Stimulus\all_stim\occlusion\partialviewing\manysmall\high\manysmall_partialViewing_high_firehydrant2.png,mask_img/000000050239.png,experiment,i,u,565.6447894000012
3,17,Male,Right,149,Block 2,0.9172796000057133,0.05,true,tree,tree,occlusion,high,mask,partial viewing,many small,Stimulus\all_stim\occlusion\partialviewing\manysmall\high\manysmall_partialViewing_high_tree2.png,mask_img/000000052901.png,experiment,r,r,567.4527393000026
3,17,Male,Right,150,Block 2,0.7020251999929314,0.125,false,tree,banana,occlusion,high,mask,partial viewing,many small,Stimulus\all_stim\occlusion\partialviewing\manysmall\high\manysmall_partialViewing_high_tree3.png,mask_img/000000052936.png,experiment,e,r,568.940898300003
3,17,Male,Right,151,Block 2,0.6515420999930939,0.05,true,building,building,occlusion,low,mask,partial viewing,many small,Stimulus\all_stim\occlusion\partialviewing\manysmall\low\manysmall_partialViewing_low_building8.png,mask_img/000000058073.png,experiment,q,q,570.7165252999985
3,17,Male,Right,152,Block 2,0.8624073999963002,0.05,true,person,person,occlusion,high,mask,partial viewing,many small,Stimulus\all_stim\occlusion\partialviewing\manysmall\high\manysmall_partialViewing_high_person3.png,mask_img/000000051880.png,experiment,i,i,572.5088448000024
3,17,Male,Right,153,Block 2,1.141153000004124,0.125,true,firehydrant,firehydrant,occlusion,control,mask,partial viewing,many small,Stimulus\all_stim\occlusion\partialviewing\manysmall\control\manysmall_partialViewing_control_firehydrant1.png,mask_img/000000039012.png,experiment,u,u,574.3330416999961
3,17,Male,Right,154,Block 2,0.6357639000052586,0.05,true,tree,tree,occlusion,high,mask,partial viewing,many small,Stimulus\all_stim\occlusion\partialviewing\manysmall\high\manysmall_partialViewing_high_tree3.png,mask_img/000000052936.png,experiment,r,r,575.7966822000017
3,17,Male,Right,155,Block 2,0.8577304000064032,0.125,false,bird,person,occlusion,high,mask,partial viewing,many small,Stimulus\all_stim\occlusion\partialviewing\manysmall\high\manysmall_partialViewing_high_bird10.png,mask_img/000000044065.png,experiment,i,p,577.6929012000037
3,17,Male,Right,156,Block 2,0.6343618999962928,0.05,false,bird,person,occlusion,low,mask,partial viewing,many small,Stimulus\all_stim\occlusion\partialviewing\manysmall\low\manysmall_partialViewing_low_bird8.png,mask_img/000000056137.png,experiment,i,p,579.0127150000044
3,17,Male,Right,157,Block 2,0.6696612999949139,0.025,true,tree,tree,occlusion,low,mask,partial viewing,few large,Stimulus\all_stim\occlusion\partialviewing\fewlarge\low\fewlarge_partialViewing_low_tree7.png,mask_img/000000032906.png,experiment,r,r,580.5567218000069
3,17,Male,Right,158,Block 2,0.6478975999925751,0.125,true,tree,tree,occlusion,low,mask,partial viewing,many small,Stimulus\all_stim\occlusion\partialviewing\manysmall\low\manysmall_partialViewing_low_tree8.png,mask_img/000000063804.png,experiment,r,r,582.3194543999998
3,17,Male,Right,159,Block 2,0.7609678000007989,0.125,false,cat,bird,occlusion,high,mask,partial viewing,few large,Stimulus\all_stim\occlusion\partialviewing\fewlarge\high\fewlarge_partialViewing_high_cat8.png,mask_img/000000017791.png,experiment,p,o,583.9250257999956
3,17,Male,Right,160,Block 2,1.0828152000030968,0.05,true,person,person,occlusion,control,mask,partial viewing,few large,Stimulus\all_stim\occlusion\partialviewing\fewlarge\control\fewlarge_partialViewing_control_person6.png,mask_img/000000009469.png,experiment,i,i,585.9167954000004
3,17,Male,Right,161,Block 2,0.6454464000125881,0.125,true,firehydrant,firehydrant,occlusion,high,mask,partial viewing,few large,Stimulus\all_stim\occlusion\partialviewing\fewlarge\high\fewlarge_partialViewing_high_firehydrant6.png,mask_img/000000019134.png,experiment,u,u,587.4547597000055
3,17,Male,Right,162,Block 2,0.49173290000180714,0.05,true,building,building,occlusion,high,mask,partial viewing,few large,Stimulus\all_stim\occlusion\partialviewing\fewlarge\high\fewlarge_partialViewing_high_building9.png,mask_img/000000015619.png,experiment,q,q,588.9720888000011
3,17,Male,Right,163,Block 2,0.7293892999878153,0.025,true,person,person,occlusion,high,mask,partial viewing,few large,Stimulus\all_stim\occlusion\partialviewing\fewlarge\high\fewlarge_partialViewing_high_person6.png,mask_img/000000020392.png,experiment,i,i,590.4606519000081
3,17,Male,Right,164,Block 2,0.6964349000045331,0.05,true,bus,bus,occlusion,control,mask,partial viewing,few large,Stimulus\all_stim\occlusion\partialviewing\fewlarge\control\fewlarge_partialViewing_control_bus8.png,mask_img/000000006153.png,experiment,w,w,591.8289796000026
3,17,Male,Right,165,Block 2,0.702853499999037,0.025,true,banana,banana,occlusion,control,mask,partial viewing,few large,Stimulus\all_stim\occlusion\partialviewing\fewlarge\control\fewlarge_partialViewing_control_banana10.png,mask_img/000000000109.png,experiment,e,e,593.4127092999988
3,17,Male,Right,166,Block 2,0.6050359999935608,0.05,true,bus,bus,occlusion,control,mask,partial viewing,many small,Stimulus\all_stim\occlusion\partialviewing\manysmall\control\manysmall_partialViewing_control_bus9.png,mask_img/000000037864.png,experiment,w,w,594.9403652000037
3,17,Male,Right,167,Block 2,0.8675452000024961,0.125,true,firehydrant,firehydrant,occlusion,control,mask,partial viewing,few large,Stimulus\all_stim\occlusion\partialviewing\fewlarge\control\fewlarge_partialViewing_control_firehydrant5.png,mask_img/000000008006.png,experiment,u,u,596.4609669000056
3,17,Male,Right,168,Block 2,0.5333627999934833,0.05,true,building,building,occlusion,control,mask,partial viewing,many small,Stimulus\all_stim\occlusion\partialviewing\manysmall\control\manysmall_partialViewing_control_building9.png,mask_img/000000036226.png,experiment,q,q,597.8235492999956
3,17,Male,Right,169,Block 2,0.7395465000008699,0.125,true,tree,tree,occlusion,low,mask,partial viewing,few large,Stimulus\all_stim\occlusion\partialviewing\fewlarge\low\fewlarge_partialViewing_low_tree9.png,mask_img/000000032965.png,experiment,r,r,599.5746976000082
3,17,Male,Right,170,Block 2,1.1062647999933688,0.05,true,cat,cat,occlusion,low,mask,partial viewing,many small,Stimulus\all_stim\occlusion\partialviewing\manysmall\low\manysmall_partialViewing_low_cat3.png,mask_img/000000059442.png,experiment,o,o,601.6129546000011
3,17,Male,Right,171,Block 2,0.9190146000037203,0.125,true,bus,bus,occlusion,high,mask,partial viewing,few large,Stimulus\all_stim\occlusion\partialviewing\fewlarge\high\fewlarge_partialViewing_high_bus1.png,mask_img/000000015645.png,experiment,w,w,603.5887036000058
3,17,Male,Right,172,Block 2,0.7829974999913247,0.125,true,firehydrant,firehydrant,occlusion,control,mask,partial viewing,many small,Stimulus\all_stim\occlusion\partialviewing\manysmall\control\manysmall_partialViewing_control_firehydrant5.png,mask_img/000000039211.png,experiment,u,u,605.0768069000042
3,17,Male,Right,173,Block 2,0.8155515999969793,0.125,true,bus,bus,occlusion,control,mask,partial viewing,few large,Stimulus\all_stim\occlusion\partialviewing\fewlarge\control\fewlarge_partialViewing_control_bus8.png,mask_img/000000006153.png,experiment,w,w,606.6367715000088
3,17,Male,Right,174,Block 2,0.7295904000056908,0.05,true,banana,banana,occlusion,control,mask,partial viewing,many small,Stimulus\all_stim\occlusion\partialviewing\manysmall\control\manysmall_partialViewing_control_banana9.png,mask_img/000000033955.png,experiment,e,e,608.0367264000088
3,17,Male,Right,175,Block 2,0.5539272999885725,0.05,true,cat,cat,occlusion,control,mask,partial viewing,few large,Stimulus\all_stim\occlusion\partialviewing\fewlarge\control\fewlarge_partialViewing_control_cat1.png,mask_img/000000006437.png,experiment,o,o,609.4943640999991
3,17,Male,Right,176,Block 2,0.7965610000101151,0.025,false,tree,banana,occlusion,low,mask,partial viewing,many small,Stimulus\all_stim\occlusion\partialviewing\manysmall\low\manysmall_partialViewing_low_tree10.png,mask_img/000000062716.png,experiment,e,r,611.3887112000084
3,17,Male,Right,177,Block 2,0.6778786000068067,0.05,true,tree,tree,occlusion,low,mask,partial viewing,many small,Stimulus\all_stim\occlusion\partialviewing\manysmall\low\manysmall_partialViewing_low_tree6.png,mask_img/000000063715.png,experiment,r,r,613.0310486999952
3,17,Male,Right,178,Block 2,0.5929115999897476,0.05,false,banana,bus,occlusion,low,mask,partial viewing,many small,Stimulus\all_stim\occlusion\partialviewing\manysmall\low\manysmall_partialViewing_low_banana4.png,mask_img/000000055202.png,experiment,w,e,614.4464225999982
3,17,Male,Right,179,Block 2,0.6994255000026897,0.025,false,person,cat,occlusion,high,mask,partial viewing,many small,Stimulus\all_stim\occlusion\partialviewing\manysmall\high\manysmall_partialViewing_high_person4.png,mask_img/000000052087.png,experiment,o,i,615.9406144000095
3,17,Male,Right,180,Block 2,0.7067494000075385,0.125,true,banana,banana,occlusion,high,mask,partial viewing,few large,Stimulus\all_stim\occlusion\partialviewing\fewlarge\high\fewlarge_partialViewing_high_banana3.png,mask_img/000000012313.png,experiment,e,e,617.7566248000076
3,17,Male,Right,181,Block 2,0.8653332999965642,0.025,false,cat,tree,occlusion,high,mask,partial viewing,many small,Stimulus\all_stim\occlusion\partialviewing\manysmall\high\manysmall_partialViewing_high_cat7.png,mask_img/000000049602.png,experiment,r,o,619.5887959999964
3,17,Male,Right,182,Block 2,0.6625896000041394,0.125,true,tree,tree,occlusion,high,mask,partial viewing,many small,Stimulus\all_stim\occlusion\partialviewing\manysmall\high\manysmall_partialViewing_high_tree9.png,mask_img/000000054336.png,experiment,r,r,621.282237899999
3,17,Male,Right,183,Block 2,0.6230045999982394,0.05,true,bus,bus,occlusion,high,mask,partial viewing,many small,Stimulus\all_stim\occlusion\partialviewing\manysmall\high\manysmall_partialViewing_high_bus10.png,mask_img/000000046805.png,experiment,w,w,622.9809010000026
3,17,Male,Right,184,Block 2,0.6158491000096546,0.125,true,bus,bus,occlusion,control,mask,partial viewing,few large,Stimulus\all_stim\occlusion\partialviewing\fewlarge\control\fewlarge_partialViewing_control_bus9.png,mask_img/000000006263.png,experiment,w,w,624.4352287000074
3,17,Male,Right,185,Block 2,0.7048797000024933,0.025,true,cat,cat,occlusion,control,mask,partial viewing,few large,Stimulus\all_stim\occlusion\partialviewing\fewlarge\control\fewlarge_partialViewing_control_cat7.png,mask_img/000000007325.png,experiment,o,o,625.9807858999993
3,17,Male,Right,186,Block 2,0.5217409999895608,0.125,true,banana,banana,occlusion,low,mask,partial viewing,few large,Stimulus\all_stim\occlusion\partialviewing\fewlarge\low\fewlarge_partialViewing_low_banana4.png,mask_img/000000023015.png,experiment,e,e,627.2518208999973
3,17,Male,Right,187,Block 2,0.6497388000134379,0.05,true,person,person,occlusion,low,mask,partial viewing,few large,Stimulus\all_stim\occlusion\partialviewing\fewlarge\low\fewlarge_partialViewing_low_person3.png,mask_img/000000029506.png,experiment,i,i,629.0287067000027
3,17,Male,Right,188,Block 2,0.6197396000061417,0.125,true,bird,bird,occlusion,control,mask,partial viewing,few large,Stimulus\all_stim\occlusion\partialviewing\fewlarge\control\fewlarge_partialViewing_control_bird2.png,mask_img/000000001647.png,experiment,p,p,630.354087700005
3,17,Male,Right,189,Block 2,0.805623199994443,0.025,true,person,person,occlusion,low,mask,partial viewing,many small,Stimulus\all_stim\occlusion\partialviewing\manysmall\low\manysmall_partialViewing_low_person5.png,mask_img/000000062193.png,experiment,i,i,631.8130431000027
3,17,Male,Right,190,Block 2,1.5866281000053277,0.025,false,bird,tree,occlusion,low,mask,partial viewing,many small,Stimulus\all_stim\occlusion\partialviewing\manysmall\low\manysmall_partialViewing_low_bird2.png,mask_img/000000055737.png,experiment,r,p,634.2288786999998
3,17,Male,Right,191,Block 2,0.7072755999979563,0.025,true,banana,banana,occlusion,control,mask,partial viewing,many small,Stimulus\all_stim\occlusion\partialviewing\manysmall\control\manysmall_partialViewing_control_banana4.png,mask_img/000000033667.png,experiment,e,e,635.8767113000067
3,17,Male,Right,192,Block 2,0.6249379000073532,0.025,true,bus,bus,occlusion,control,mask,partial viewing,many small,Stimulus\all_stim\occlusion\partialviewing\manysmall\control\manysmall_partialViewing_control_bus2.png,mask_img/000000036622.png,experiment,w,w,637.4372093999991
3,17,Male,Right,193,Block 2,0.45345929999893997,0.125,true,bus,bus,occlusion,low,mask,partial viewing,many small,Stimulus\all_stim\occlusion\partialviewing\manysmall\low\manysmall_partialViewing_low_bus1.png,mask_img/000000058232.png,experiment,w,w,638.8386852999975
3,17,Male,Right,194,Block 2,0.8819371000136016,0.125,true,firehydrant,firehydrant,occlusion,high,mask,partial viewing,many small,Stimulus\all_stim\occlusion\partialviewing\manysmall\high\manysmall_partialViewing_high_firehydrant1.png,mask_img/000000049987.png,experiment,u,u,640.4697179000068
3,17,Male,Right,195,Block 2,0.5509508999966783,0.05,true,firehydrant,firehydrant,occlusion,control,mask,partial viewing,few large,Stimulus\all_stim\occlusion\partialviewing\fewlarge\control\fewlarge_partialViewing_control_firehydrant1.png,mask_img/000000007740.png,experiment,u,u,641.7231902000058
3,17,Male,Right,196,Block 2,0.6002988999971421,0.05,true,cat,cat,occlusion,control,mask,partial viewing,few large,Stimulus\all_stim\occlusion\partialviewing\fewlarge\control\fewlarge_partialViewing_control_cat4.png,mask_img/000000006842.png,experiment,o,o,643.2088060000096
3,17,Male,Right,197,Block 2,0.7310680999944452,0.025,true,cat,cat,occlusion,low,mask,partial viewing,many small,Stimulus\all_stim\occlusion\partialviewing\manysmall\low\manysmall_partialViewing_low_cat7.png,mask_img/000000060158.png,experiment,o,o,644.8687437000044
3,17,Male,Right,198,Block 2,1.091044000000693,0.05,false,bird,firehydrant,occlusion,high,mask,partial viewing,few large,Stimulus\all_stim\occlusion\partialviewing\fewlarge\high\fewlarge_partialViewing_high_bird10.png,mask_img/000000013127.png,experiment,u,p,646.8788369999966
3,17,Male,Right,199,Block 2,0.6981104000005871,0.05,true,tree,tree,occlusion,low,mask,partial viewing,many small,Stimulus\all_stim\occlusion\partialviewing\manysmall\low\manysmall_partialViewing_low_tree8.png,mask_img/000000063804.png,experiment,r,r,648.5330759000062
3,17,Male,Right,200,Block 2,0.5475340999983018,0.05,true,banana,banana,occlusion,control,mask,partial viewing,many small,Stimulus\all_stim\occlusion\partialviewing\manysmall\control\manysmall_partialViewing_control_banana3.png,mask_img/000000033323.png,experiment,e,e,649.9099011000071
3,17,Male,Right,201,Block 2,0.5619525000074646,0.025,false,cat,person,occlusion,low,mask,partial viewing,few large,Stimulus\all_stim\occlusion\partialviewing\fewlarge\low\fewlarge_partialViewing_low_cat8.png,mask_img/000000028171.png,experiment,i,o,651.6116559000075
3,17,Male,Right,202,Block 2,0.5672365999926114,0.05,false,building,bus,occlusion,high,mask,partial viewing,many small,Stimulus\all_stim\occlusion\partialviewing\manysmall\high\manysmall_partialViewing_high_building7.png,mask_img/000000046171.png,experiment,w,q,653.2272866999992
3,17,Male,Right,203,Block 2,1.3425492999958806,0.125,true,cat,cat,occlusion,low,mask,partial viewing,many small,Stimulus\all_stim\occlusion\partialviewing\manysmall\low\manysmall_partialViewing_low_cat5.png,mask_img/000000059660.png,experiment,o,o,655.6690287999954
3,17,Male,Right,204,Block 2,0.6218616999976803,0.05,true,cat,cat,occlusion,low,mask,partial viewing,few large,Stimulus\all_stim\occlusion\partialviewing\fewlarge\low\fewlarge_partialViewing_low_cat7.png,mask_img/000000027890.png,experiment,o,o,657.3734432000056
3,17,Male,Right,205,Block 2,0.6057843000016874,0.025,true,building,building,occlusion,low,mask,partial viewing,few large,Stimulus\all_stim\occlusion\partialviewing\fewlarge\low\fewlarge_partialViewing_low_building3.png,mask_img/000000024808.png,experiment,q,q,658.8529580000031
3,17,Male,Right,206,Block 2,0.9699332999880426,0.125,false,bird,cat,occlusion,low,mask,partial viewing,few large,Stimulus\all_stim\occlusion\partialviewing\fewlarge\low\fewlarge_partialViewing_low_bird1.png,mask_img/000000023984.png,experiment,o,p,660.5489770999993
3,17,Male,Right,207,Block 2,1.3089263000001665,0.025,false,banana,cat,occlusion,high,mask,partial viewing,many small,Stimulus\all_stim\occlusion\partialviewing\manysmall\high\manysmall_partialViewing_high_banana10.png,mask_img/000000042196.png,experiment,o,e,662.7414162000059
3,17,Male,Right,208,Block 2,1.0499352000042563,0.05,true,tree,tree,occlusion,low,mask,partial viewing,many small,Stimulus\all_stim\occlusion\partialviewing\manysmall\low\manysmall_partialViewing_low_tree1.png,mask_img/000000062690.png,experiment,r,r,664.4930652000039
3,17,Male,Right,209,Block 2,0.7114877999993041,0.025,true,bird,bird,occlusion,low,mask,partial viewing,few large,Stimulus\all_stim\occlusion\partialviewing\fewlarge\low\fewlarge_partialViewing_low_bird6.png,mask_img/000000024247.png,experiment,p,p,666.2848172000085
3,17,Male,Right,210,Block 2,0.6316504999995232,0.025,false,banana,tree,occlusion,control,mask,partial viewing,many small,Stimulus\all_stim\occlusion\partialviewing\manysmall\control\manysmall_partialViewing_control_banana9.png,mask_img/000000033955.png,experiment,r,e,667.724710800001
3,17,Male,Right,211,Block 2,0.6995390999945812,0.05,true,cat,cat,occlusion,low,mask,partial viewing,few large,Stimulus\all_stim\occlusion\partialviewing\fewlarge\low\fewlarge_partialViewing_low_cat4.png,mask_img/000000027675.png,experiment,o,o,669.1089723000041
3,17,Male,Right,212,Block 2,1.76178779998736,0.05,false,bird,cat,occlusion,low,mask,partial viewing,few large,Stimulus\all_stim\occlusion\partialviewing\fewlarge\low\fewlarge_partialViewing_low_bird2.png,mask_img/000000024125.png,experiment,o,p,671.949074899996
3,17,Male,Right,213,Block 2,0.8177889000071445,0.125,true,cat,cat,occlusion,control,mask,partial viewing,few large,Stimulus\all_stim\occlusion\partialviewing\fewlarge\control\fewlarge_partialViewing_control_cat7.png,mask_img/000000007325.png,experiment,o,o,673.509195599996
3,17,Male,Right,214,Block 2,0.8310905000107596,0.025,true,bus,bus,occlusion,high,mask,partial viewing,many small,Stimulus\all_stim\occlusion\partialviewing\manysmall\high\manysmall_partialViewing_high_bus10.png,mask_img/000000046805.png,experiment,w,w,675.0128199000028
3,17,Male,Right,215,Block 2,0.632000199999311,0.05,true,cat,cat,occlusion,low,mask,partial viewing,many small,Stimulus\all_stim\occlusion\partialviewing\manysmall\low\manysmall_partialViewing_low_cat4.png,mask_img/000000059483.png,experiment,o,o,676.5108230000042
3,17,Male,Right,216,Block 2,0.7548294000007445,0.125,false,tree,banana,occlusion,low,mask,partial viewing,few large,Stimulus\all_stim\occlusion\partialviewing\fewlarge\low\fewlarge_partialViewing_low_tree3.png,mask_img/000000031717.png,experiment,e,r,678.2767810000078
3,17,Male,Right,217,Block 2,0.8395980999921449,0.125,true,bus,bus,occlusion,high,mask,partial viewing,many small,Stimulus\all_stim\occlusion\partialviewing\manysmall\high\manysmall_partialViewing_high_bus3.png,mask_img/000000047229.png,experiment,w,w,680.1648186000093
3,17,Male,Right,218,Block 2,0.6451816000044346,0.025,true,cat,cat,occlusion,control,mask,partial viewing,many small,Stimulus\all_stim\occlusion\partialviewing\manysmall\control\manysmall_partialViewing_control_cat2.png,mask_img/000000038375.png,experiment,o,o,681.6608657000033
3,17,Male,Right,219,Block 2,0.7749936000036541,0.125,true,bird,bird,occlusion,low,mask,partial viewing,few large,Stimulus\all_stim\occlusion\partialviewing\fewlarge\low\fewlarge_partialViewing_low_bird4.png,mask_img/000000024193.png,experiment,p,p,683.4051619999955
3,17,Male,Right,220,Block 2,0.8335572999931173,0.05,true,tree,tree,occlusion,high,mask,partial viewing,many small,Stimulus\all_stim\occlusion\partialviewing\manysmall\high\manysmall_partialViewing_high_tree8.png,mask_img/000000054334.png,experiment,r,r,685.2384733000072
3,17,Male,Right,221,Block 2,0.7634383999975398,0.125,true,cat,cat,occlusion,low,mask,partial viewing,many small,Stimulus\all_stim\occlusion\partialviewing\manysmall\low\manysmall_partialViewing_low_cat7.png,mask_img/000000060158.png,experiment,o,o,686.676770200007
3,17,Male,Right,222,Block 2,0.7976582999981474,0.05,true,person,person,occlusion,control,mask,partial viewing,few large,Stimulus\all_stim\occlusion\partialviewing\fewlarge\control\fewlarge_partialViewing_control_person1.png,mask_img/000000008341.png,experiment,i,i,688.428747900005
3,17,Male,Right,223,Block 2,0.7089456999965478,0.05,true,banana,banana,occlusion,low,mask,partial viewing,few large,Stimulus\all_stim\occlusion\partialviewing\fewlarge\low\fewlarge_partialViewing_low_banana1.png,mask_img/000000022545.png,experiment,e,e,690.0850973000051
3,17,Male,Right,224,Block 2,1.1510833000065759,0.025,true,bird,bird,occlusion,low,mask,partial viewing,many small,Stimulus\all_stim\occlusion\partialviewing\manysmall\low\manysmall_partialViewing_low_bird9.png,mask_img/000000056641.png,experiment,p,p,692.2449129000015
3,17,Male,Right,225,Block 2,0.5797997000045143,0.05,false,cat,bird,occlusion,low,mask,partial viewing,many small,Stimulus\all_stim\occlusion\partialviewing\manysmall\low\manysmall_partialViewing_low_cat10.png,mask_img/000000059046.png,experiment,p,o,693.526738200002
3,17,Male,Right,226,Block 2,1.0029114999924786,0.125,true,firehydrant,firehydrant,occlusion,high,mask,partial viewing,many small,Stimulus\all_stim\occlusion\partialviewing\manysmall\high\manysmall_partialViewing_high_firehydrant6.png,mask_img/000000050782.png,experiment,u,u,695.644990700006
3,17,Male,Right,227,Block 2,0.6631386000080965,0.025,true,bird,bird,occlusion,low,mask,partial viewing,many small,Stimulus\all_stim\occlusion\partialviewing\manysmall\low\manysmall_partialViewing_low_bird7.png,mask_img/000000056036.png,experiment,p,p,697.3014457999961
3,17,Male,Right,228,Block 2,0.7413126000028569,0.05,true,tree,tree,occlusion,low,mask,partial viewing,few large,Stimulus\all_stim\occlusion\partialviewing\fewlarge\low\fewlarge_partialViewing_low_tree6.png,mask_img/000000032720.png,experiment,r,r,698.9568565000081
3,17,Male,Right,229,Block 2,0.636581800004933,0.05,false,banana,bus,occlusion,high,mask,partial viewing,few large,Stimulus\all_stim\occlusion\partialviewing\fewlarge\high\fewlarge_partialViewing_high_banana3.png,mask_img/000000012313.png,experiment,w,e,700.4287576000061
3,17,Male,Right,230,Block 2,1.2904855999950087,0.125,true,bus,bus,occlusion,high,mask,partial viewing,many small,Stimulus\all_stim\occlusion\partialviewing\manysmall\high\manysmall_partialViewing_high_bus5.png,mask_img/000000047395.png,experiment,w,w,702.573138599997
3,17,Male,Right,231,Block 2,0.6202821000042604,0.125,true,tree,tree,occlusion,high,mask,partial viewing,few large,Stimulus\all_stim\occlusion\partialviewing\fewlarge\high\fewlarge_partialViewing_high_tree7.png,mask_img/000000022256.png,experiment,r,r,703.9627064000088
3,17,Male,Right,232,Block 2,0.6336751000053482,0.025,false,bus,banana,occlusion,control,mask,partial viewing,few large,Stimulus\all_stim\occlusion\partialviewing\fewlarge\control\fewlarge_partialViewing_control_bus2.png,mask_img/000000005359.png,experiment,e,w,705.5168836000084
3,17,Male,Right,233,Block 2,0.5905369999964023,0.125,true,tree,tree,occlusion,control,mask,partial viewing,few large,Stimulus\all_stim\occlusion\partialviewing\fewlarge\control\fewlarge_partialViewing_control_tree4.png,mask_img/000000010969.png,experiment,r,r,707.1155700999952
3,17,Male,Right,234,Block 2,0.5535054999927524,0.125,true,bird,bird,occlusion,low,mask,partial viewing,many small,Stimulus\all_stim\occlusion\partialviewing\manysmall\low\manysmall_partialViewing_low_bird7.png,mask_img/000000056036.png,experiment,p,p,708.5981879000028
3,17,Male,Right,235,Block 2,0.6976918000000296,0.05,false,person,firehydrant,occlusion,low,mask,partial viewing,few large,Stimulus\all_stim\occlusion\partialviewing\fewlarge\low\fewlarge_partialViewing_low_person7.png,mask_img/000000030526.png,experiment,u,i,710.228721300009
3,17,Male,Right,236,Block 2,0.603987300011795,0.125,true,person,person,occlusion,high,mask,partial viewing,many small,Stimulus\all_stim\occlusion\partialviewing\manysmall\high\manysmall_partialViewing_high_person7.png,mask_img/000000052562.png,experiment,i,i,711.817049300007
3,17,Male,Right,237,Block 2,1.1320239000051515,0.025,true,firehydrant,firehydrant,occlusion,low,mask,partial viewing,few large,Stimulus\all_stim\occlusion\partialviewing\fewlarge\low\fewlarge_partialViewing_low_firehydrant10.png,mask_img/000000028367.png,experiment,u,u,713.806834300005
3,17,Male,Right,238,Block 2,0.7617634000052931,0.125,true,building,building,occlusion,low,mask,partial viewing,few large,Stimulus\all_stim\occlusion\partialviewing\fewlarge\low\fewlarge_partialViewing_low_building9.png,mask_img/000000025516.png,experiment,q,q,715.6770516999968
3,17,Male,Right,239,Block 2,0.5232264999940526,0.125,true,building,building,occlusion,low,mask,partial viewing,many small,Stimulus\all_stim\occlusion\partialviewing\manysmall\low\manysmall_partialViewing_low_building6.png,mask_img/000000057979.png,experiment,q,q,717.0191122999968
3,17,Male,Right,240,Block 2,0.6402430000016466,0.05,false,bus,banana,occlusion,high,mask,partial viewing,few large,Stimulus\all_stim\occlusion\partialviewing\fewlarge\high\fewlarge_partialViewing_high_bus6.png,mask_img/000000015987.png,experiment,e,w,718.3969761000044
3,17,Male,Right,241,Block 2,1.1849456999916583,0.125,true,building,building,occlusion,high,mask,partial viewing,many small,Stimulus\all_stim\occlusion\partialviewing\manysmall\high\manysmall_partialViewing_high_building2.png,mask_img/000000045306.png,experiment,q,q,720.6048408000061
3,17,Male,Right,242,Block 2,0.5828660999977728,0.025,true,banana,banana,occlusion,low,mask,partial viewing,many small,Stimulus\all_stim\occlusion\partialviewing\manysmall\low\manysmall_partialViewing_low_banana2.png,mask_img/000000054759.png,experiment,e,e,722.2860317000013
3,17,Male,Right,243,Block 2,0.5664143999892985,0.025,true,bird,bird,occlusion,control,mask,partial viewing,few large,Stimulus\all_stim\occlusion\partialviewing\fewlarge\control\fewlarge_partialViewing_control_bird6.png,mask_img/000000002337.png,experiment,p,p,723.7212973999995
3,17,Male,Right,244,Block 2,0.6285690000077011,0.025,true,banana,banana,occlusion,control,mask,partial viewing,many small,Stimulus\all_stim\occlusion\partialviewing\manysmall\control\manysmall_partialViewing_control_banana8.png,mask_img/000000033904.png,experiment,e,e,725.4129069000046
3,17,Male,Right,245,Block 2,0.5533351000049151,0.025,true,banana,banana,occlusion,low,mask,partial viewing,few large,Stimulus\all_stim\occlusion\partialviewing\fewlarge\low\fewlarge_partialViewing_low_banana9.png,mask_img/000000023967.png,experiment,e,e,726.7879389000009
3,17,Male,Right,246,Block 2,0.6542767000064487,0.125,true,cat,cat,occlusion,control,mask,partial viewing,many small,Stimulus\all_stim\occlusion\partialviewing\manysmall\control\manysmall_partialViewing_control_cat3.png,mask_img/000000038381.png,experiment,o,o,728.5403777000029
3,17,Male,Right,247,Block 2,0.8362689999921713,0.05,true,firehydrant,firehydrant,occlusion,high,mask,partial viewing,few large,Stimulus\all_stim\occlusion\partialviewing\fewlarge\high\fewlarge_partialViewing_high_firehydrant9.png,mask_img/000000019725.png,experiment,u,u,730.2049891000061
3,17,Male,Right,248,Block 2,1.372883499992895,0.025,true,bus,bus,occlusion,control,mask,partial viewing,few large,Stimulus\all_stim\occlusion\partialviewing\fewlarge\control\fewlarge_partialViewing_control_bus10.png,mask_img/000000005282.png,experiment,w,w,732.6450710000063
3,17,Male,Right,249,Block 2,0.8911793000006583,0.125,true,cat,cat,occlusion,low,mask,partial viewing,few large,Stimulus\all_stim\occlusion\partialviewing\fewlarge\low\fewlarge_partialViewing_low_cat4.png,mask_img/000000027675.png,experiment,o,o,734.4208911000023
3,17,Male,Right,250,Block 2,0.6732772999966983,0.025,false,building,bus,occlusion,high,mask,partial viewing,few large,Stimulus\all_stim\occlusion\partialviewing\fewlarge\high\fewlarge_partialViewing_high_building6.png,mask_img/000000014774.png,experiment,w,q,735.8928796999971
3,17,Male,Right,251,Block 2,1.196640900001512,0.05,true,tree,tree,occlusion,high,mask,partial viewing,few large,Stimulus\all_stim\occlusion\partialviewing\fewlarge\high\fewlarge_partialViewing_high_tree2.png,mask_img/000000021641.png,experiment,r,r,738.125197100002
3,17,Male,Right,252,Block 2,0.6593413000082364,0.05,true,building,building,occlusion,high,mask,partial viewing,few large,Stimulus\all_stim\occlusion\partialviewing\fewlarge\high\fewlarge_partialViewing_high_building6.png,mask_img/000000014774.png,experiment,q,q,739.7088407999981
3,17,Male,Right,253,Block 2,0.6702628000057302,0.05,true,bird,bird,occlusion,low,mask,partial viewing,few large,Stimulus\all_stim\occlusion\partialviewing\fewlarge\low\fewlarge_partialViewing_low_bird7.png,mask_img/000000024403.png,experiment,p,p,741.3973904000013
3,17,Male,Right,254,Block 2,0.4857153000048129,0.05,true,bird,bird,occlusion,low,mask,partial viewing,few large,Stimulus\all_stim\occlusion\partialviewing\fewlarge\low\fewlarge_partialViewing_low_bird10.png,mask_img/000000023988.png,experiment,p,p,742.8770814000018
3,17,Male,Right,255,Block 2,0.5568066999985604,0.05,true,bus,bus,occlusion,control,mask,partial viewing,many small,Stimulus\all_stim\occlusion\partialviewing\manysmall\control\manysmall_partialViewing_control_bus2.png,mask_img/000000036622.png,experiment,w,w,744.5778587999957
3,17,Male,Right,256,Block 2,0.8291720999986865,0.125,false,person,cat,occlusion,high,mask,partial viewing,many small,Stimulus\all_stim\occlusion\partialviewing\manysmall\high\manysmall_partialViewing_high_person6.png,mask_img/000000052426.png,experiment,o,i,746.5568721000018
3,17,Male,Right,257,Block 2,1.1270352999999886,0.025,true,bird,bird,occlusion,control,mask,partial viewing,few large,Stimulus\all_stim\occlusion\partialviewing\fewlarge\control\fewlarge_partialViewing_control_bird8.png,mask_img/000000002822.png,experiment,p,p,748.8129664000007
3,17,Male,Right,258,Block 2,0.7637338000058662,0.05,true,person,person,occlusion,low,mask,partial viewing,few large,Stimulus\all_stim\occlusion\partialviewing\fewlarge\low\fewlarge_partialViewing_low_person4.png,mask_img/000000029730.png,experiment,i,i,750.5409672999958
3,17,Male,Right,259,Block 2,0.9926891000068281,0.025,false,cat,bird,occlusion,high,mask,partial viewing,few large,Stimulus\all_stim\occlusion\partialviewing\fewlarge\high\fewlarge_partialViewing_high_cat2.png,mask_img/000000017352.png,experiment,p,o,752.3410457999998
3,17,Male,Right,260,Block 2,0.7469864999875426,0.05,true,person,person,occlusion,low,mask,partial viewing,few large,Stimulus\all_stim\occlusion\partialviewing\fewlarge\low\fewlarge_partialViewing_low_person2.png,mask_img/000000029274.png,experiment,i,i,753.8866670999996
3,17,Male,Right,261,Block 2,0.696406000002753,0.025,true,bus,bus,occlusion,high,mask,partial viewing,few large,Stimulus\all_stim\occlusion\partialviewing\fewlarge\high\fewlarge_partialViewing_high_bus5.png,mask_img/000000015986.png,experiment,w,w,755.3656066999974
3,17,Male,Right,262,Block 2,0.7034081000019796,0.05,true,cat,cat,occlusion,control,mask,partial viewing,many small,Stimulus\all_stim\occlusion\partialviewing\manysmall\control\manysmall_partialViewing_control_cat3.png,mask_img/000000038381.png,experiment,o,o,756.9166499999992
3,17,Male,Right,263,Block 2,0.4930746000027284,0.025,true,bird,bird,occlusion,control,mask,partial viewing,few large,Stimulus\all_stim\occlusion\partialviewing\fewlarge\control\fewlarge_partialViewing_control_bird5.png,mask_img/000000002197.png,experiment,p,p,758.1011553999997
3,17,Male,Right,264,Block 2,0.45430700000724755,0.05,true,bus,bus,occlusion,control,mask,partial viewing,many small,Stimulus\all_stim\occlusion\partialviewing\manysmall\control\manysmall_partialViewing_control_bus6.png,mask_img/000000037174.png,experiment,w,w,759.3341316000005
3,17,Male,Right,265,Block 2,0.7522632999898633,0.025,false,tree,cat,occlusion,high,mask,partial viewing,many small,Stimulus\all_stim\occlusion\partialviewing\manysmall\high\manysmall_partialViewing_high_tree2.png,mask_img/000000052901.png,experiment,o,r,760.7489624000009
3,17,Male,Right,266,Block 2,0.7924313999974402,0.125,true,bird,bird,occlusion,control,mask,partial viewing,few large,Stimulus\all_stim\occlusion\partialviewing\fewlarge\control\fewlarge_partialViewing_control_bird3.png,mask_img/000000001810.png,experiment,p,p,762.4614823000011
3,17,Male,Right,267,Block 2,0.7235293999983696,0.05,false,tree,banana,occlusion,high,mask,partial viewing,few large,Stimulus\all_stim\occlusion\partialviewing\fewlarge\high\fewlarge_partialViewing_high_tree1.png,mask_img/000000021206.png,experiment,e,r,764.1409096999996
3,17,Male,Right,268,Block 2,0.8772896000009496,0.025,false,person,banana,occlusion,high,mask,partial viewing,many small,Stimulus\all_stim\occlusion\partialviewing\manysmall\high\manysmall_partialViewing_high_person6.png,mask_img/000000052426.png,experiment,e,i,765.956871900009
3,17,Male,Right,269,Block 2,0.694866899997578,0.025,true,cat,cat,occlusion,low,mask,partial viewing,many small,Stimulus\all_stim\occlusion\partialviewing\manysmall\low\manysmall_partialViewing_low_cat4.png,mask_img/000000059483.png,experiment,o,o,767.7170449999976
3,17,Male,Right,270,Block 2,0.5932852999976603,0.025,true,bird,bird,occlusion,control,mask,partial viewing,few large,Stimulus\all_stim\occlusion\partialviewing\fewlarge\control\fewlarge_partialViewing_control_bird3.png,mask_img/000000001810.png,experiment,p,p,769.2851493000053
3,17,Male,Right,271,Block 2,0.7243076000013389,0.125,true,cat,cat,occlusion,low,mask,partial viewing,few large,Stimulus\all_stim\occlusion\partialviewing\fewlarge\low\fewlarge_partialViewing_low_cat6.png,mask_img/000000027764.png,experiment,o,o,771.0291241000086
3,17,Male,Right,272,Block 2,0.7876189999951748,0.125,false,banana,tree,occlusion,high,mask,partial viewing,few large,Stimulus\all_stim\occlusion\partialviewing\fewlarge\high\fewlarge_partialViewing_high_banana5.png,mask_img/000000012543.png,experiment,r,e,772.7014802000049
3,17,Male,Right,273,Block 2,0.7339664000028279,0.125,true,cat,cat,occlusion,high,mask,partial viewing,many small,Stimulus\all_stim\occlusion\partialviewing\manysmall\high\manysmall_partialViewing_high_cat1.png,mask_img/000000048664.png,experiment,o,o,774.0930422999954
3,17,Male,Right,274,Block 2,0.6848519000050146,0.025,true,firehydrant,firehydrant,occlusion,control,mask,partial viewing,many small,Stimulus\all_stim\occlusion\partialviewing\manysmall\control\manysmall_partialViewing_control_firehydrant10.png,mask_img/000000039053.png,experiment,u,u,775.6724566000048
3,17,Male,Right,275,Block 2,1.2176032000134,0.125,true,building,building,occlusion,control,mask,partial viewing,few large,Stimulus\all_stim\occlusion\partialviewing\fewlarge\control\fewlarge_partialViewing_control_building2.png,mask_img/000000003483.png,experiment,q,q,777.6142407000007
3,17,Male,Right,276,Block 2,0.7159879999962868,0.025,true,banana,banana,occlusion,control,mask,partial viewing,many small,Stimulus\all_stim\occlusion\partialviewing\manysmall\control\manysmall_partialViewing_control_banana6.png,mask_img/000000033756.png,experiment,e,e,779.2367896000069
3,17,Male,Right,277,Block 2,0.8484533999871928,0.025,true,firehydrant,firehydrant,occlusion,high,mask,partial viewing,few large,Stimulus\all_stim\occlusion\partialviewing\fewlarge\high\fewlarge_partialViewing_high_firehydrant9.png,mask_img/000000019725.png,experiment,u,u,781.1809271000093
3,17,Male,Right,278,Block 2,0.6006844000075944,0.125,true,building,building,occlusion,control,mask,partial viewing,few large,Stimulus\all_stim\occlusion\partialviewing\fewlarge\control\fewlarge_partialViewing_control_building3.png,mask_img/000000003694.png,experiment,q,q,782.5601208000007
3,17,Male,Right,279,Block 2,0.6613299000018742,0.05,true,tree,tree,occlusion,high,mask,partial viewing,few large,Stimulus\all_stim\occlusion\partialviewing\fewlarge\high\fewlarge_partialViewing_high_tree9.png,mask_img/000000022440.png,experiment,r,r,784.3170764999959
3,17,Male,Right,280,Block 2,0.6041582000034396,0.025,true,building,building,occlusion,high,mask,partial viewing,few large,Stimulus\all_stim\occlusion\partialviewing\fewlarge\high\fewlarge_partialViewing_high_building1.png,mask_img/000000014335.png,experiment,q,q,785.893017800001
3,17,Male,Right,281,Block 2,0.621762899987516,0.125,true,bird,bird,occlusion,low,mask,partial viewing,few large,Stimulus\all_stim\occlusion\partialviewing\fewlarge\low\fewlarge_partialViewing_low_bird2.png,mask_img/000000024125.png,experiment,p,p,787.6603878000024
3,17,Male,Right,282,Block 2,0.6786428999912459,0.05,true,firehydrant,firehydrant,occlusion,low,mask,partial viewing,few large,Stimulus\all_stim\occlusion\partialviewing\fewlarge\low\fewlarge_partialViewing_low_firehydrant6.png,mask_img/000000028842.png,experiment,u,u,789.4790169000044
3,17,Male,Right,283,Block 2,0.6670987999968929,0.05,true,person,person,occlusion,control,mask,partial viewing,few large,Stimulus\all_stim\occlusion\partialviewing\fewlarge\control\fewlarge_partialViewing_control_person2.png,mask_img/000000008787.png,experiment,i,i,790.8770860000077
3,17,Male,Right,284,Block 2,0.552079600005527,0.125,true,bird,bird,occlusion,control,mask,partial viewing,many small,Stimulus\all_stim\occlusion\partialviewing\manysmall\control\manysmall_partialViewing_control_bird7.png,mask_img/000000035132.png,experiment,p,p,792.3621332000039
3,17,Male,Right,285,Block 2,0.5495006999990437,0.025,true,building,building,occlusion,low,mask,partial viewing,many small,Stimulus\all_stim\occlusion\partialviewing\manysmall\low\manysmall_partialViewing_low_building3.png,mask_img/000000057646.png,experiment,q,q,793.945996800001
3,17,Male,Right,286,Block 2,0.8307801000046311,0.025,true,firehydrant,firehydrant,occlusion,high,mask,partial viewing,few large,Stimulus\all_stim\occlusion\partialviewing\fewlarge\high\fewlarge_partialViewing_high_firehydrant2.png,mask_img/000000018743.png,experiment,u,u,795.4368200000026
3,17,Male,Right,287,Block 2,0.9196670000092126,0.025,true,person,person,occlusion,low,mask,partial viewing,many small,Stimulus\all_stim\occlusion\partialviewing\manysmall\low\manysmall_partialViewing_low_person8.png,mask_img/000000062420.png,experiment,i,i,797.0449033000041
3,17,Male,Right,288,Block 2,0.7436792999942554,0.05,true,bus,bus,occlusion,low,mask,partial viewing,many small,Stimulus\all_stim\occlusion\partialviewing\manysmall\low\manysmall_partialViewing_low_bus9.png,mask_img/000000058910.png,experiment,w,w,833.9893736000085
3,17,Male,Right,289,Block 3,0.39542519999668,0.125,false,bird,bus,occlusion,control,mask,partial viewing,many small,Stimulus\all_stim\occlusion\partialviewing\manysmall\control\manysmall_partialViewing_control_bird2.png,mask_img/000000034455.png,experiment,w,p,835.312705400007
3,17,Male,Right,290,Block 3,0.6746200999914436,0.125,true,person,person,occlusion,control,mask,partial viewing,many small,Stimulus\all_stim\occlusion\partialviewing\manysmall\control\manysmall_partialViewing_control_person6.png,mask_img/000000040325.png,experiment,i,i,836.8283584000019
3,17,Male,Right,291,Block 3,0.7773898000014015,0.025,true,tree,tree,occlusion,control,mask,partial viewing,few large,Stimulus\all_stim\occlusion\partialviewing\fewlarge\control\fewlarge_partialViewing_control_tree3.png,mask_img/000000010566.png,experiment,r,r,838.6688969999959
3,17,Male,Right,292,Block 3,0.6234130000084406,0.05,true,bird,bird,occlusion,high,mask,partial viewing,few large,Stimulus\all_stim\occlusion\partialviewing\fewlarge\high\fewlarge_partialViewing_high_bird9.png,mask_img/000000014175.png,experiment,p,p,840.1168957000045
3,17,Male,Right,293,Block 3,0.558311999993748,0.05,true,bus,bus,occlusion,control,mask,partial viewing,few large,Stimulus\all_stim\occlusion\partialviewing\fewlarge\control\fewlarge_partialViewing_control_bus7.png,mask_img/000000006146.png,experiment,w,w,841.5298674000078
3,17,Male,Right,294,Block 3,0.6659198000124888,0.025,true,bird,bird,occlusion,low,mask,partial viewing,many small,Stimulus\all_stim\occlusion\partialviewing\manysmall\low\manysmall_partialViewing_low_bird5.png,mask_img/000000055942.png,experiment,p,p,842.8929793999996
3,17,Male,Right,295,Block 3,1.1233139999967534,0.05,false,bird,person,occlusion,low,mask,partial viewing,many small,Stimulus\all_stim\occlusion\partialviewing\manysmall\low\manysmall_partialViewing_low_bird2.png,mask_img/000000055737.png,experiment,i,p,844.9408107000054
3,17,Male,Right,296,Block 3,0.695124300007592,0.05,true,cat,cat,occlusion,low,mask,partial viewing,many small,Stimulus\all_stim\occlusion\partialviewing\manysmall\low\manysmall_partialViewing_low_cat9.png,mask_img/000000060387.png,experiment,o,o,846.660822100006
3,17,Male,Right,297,Block 3,1.061344600006123,0.025,false,banana,bird,occlusion,high,mask,partial viewing,few large,Stimulus\all_stim\occlusion\partialviewing\fewlarge\high\fewlarge_partialViewing_high_banana1.png,mask_img/000000011754.png,experiment,p,e,848.5729335000069
3,17,Male,Right,298,Block 3,0.46910440000647213,0.025,true,bird,bird,occlusion,low,mask,partial viewing,few large,Stimulus\all_stim\occlusion\partialviewing\fewlarge\low\fewlarge_partialViewing_low_bird1.png,mask_img/000000023984.png,experiment,p,p,849.7996339999954
3,17,Male,Right,299,Block 3,0.6282339000026695,0.125,true,person,person,occlusion,control,mask,partial viewing,few large,Stimulus\all_stim\occlusion\partialviewing\fewlarge\control\fewlarge_partialViewing_control_person2.png,mask_img/000000008787.png,experiment,i,i,851.150398400001
3,17,Male,Right,300,Block 3,0.6444661999994423,0.125,true,bus,bus,occlusion,low,mask,partial viewing,many small,Stimulus\all_stim\occlusion\partialviewing\manysmall\low\manysmall_partialViewing_low_bus9.png,mask_img/000000058910.png,experiment,w,w,852.8852349000081
3,17,Male,Right,301,Block 3,0.639725000000908,0.05,false,firehydrant,person,occlusion,control,mask,partial viewing,many small,Stimulus\all_stim\occlusion\partialviewing\manysmall\control\manysmall_partialViewing_control_firehydrant1.png,mask_img/000000039012.png,experiment,i,u,854.4213015999994
3,17,Male,Right,302,Block 3,0.727245000001858,0.025,true,person,person,occlusion,low,mask,partial viewing,few large,Stimulus\all_stim\occlusion\partialviewing\fewlarge\low\fewlarge_partialViewing_low_person9.png,mask_img/000000031017.png,experiment,i,i,855.8690209000051
3,17,Male,Right,303,Block 3,0.6516843999997946,0.025,true,firehydrant,firehydrant,occlusion,low,mask,partial viewing,many small,Stimulus\all_stim\occlusion\partialviewing\manysmall\low\manysmall_partialViewing_low_firehydrant6.png,mask_img/000000060647.png,experiment,u,u,857.1968729000073
3,17,Male,Right,304,Block 3,0.7514621999871451,0.05,true,cat,cat,occlusion,high,mask,partial viewing,few large,Stimulus\all_stim\occlusion\partialviewing\fewlarge\high\fewlarge_partialViewing_high_cat8.png,mask_img/000000017791.png,experiment,o,o,858.6287897000002
3,17,Male,Right,305,Block 3,0.7245219000033103,0.05,true,firehydrant,firehydrant,occlusion,low,mask,partial viewing,many small,Stimulus\all_stim\occlusion\partialviewing\manysmall\low\manysmall_partialViewing_low_firehydrant10.png,mask_img/000000060529.png,experiment,u,u,860.389154000004
3,17,Male,Right,306,Block 3,0.5686948999937158,0.025,false,cat,person,occlusion,control,mask,partial viewing,few large,Stimulus\all_stim\occlusion\partialviewing\fewlarge\control\fewlarge_partialViewing_control_cat4.png,mask_img/000000006842.png,experiment,i,o,861.9045350000088
3,17,Male,Right,307,Block 3,0.9599273999920115,0.025,false,banana,bird,occlusion,low,mask,partial viewing,few large,Stimulus\all_stim\occlusion\partialviewing\fewlarge\low\fewlarge_partialViewing_low_banana2.png,mask_img/000000022983.png,experiment,p,e,863.9329702999967
3,17,Male,Right,308,Block 3,0.5658930000063265,0.05,true,building,building,occlusion,high,mask,partial viewing,many small,Stimulus\all_stim\occlusion\partialviewing\manysmall\high\manysmall_partialViewing_high_building5.png,mask_img/000000046029.png,experiment,q,q,865.2889473999967
3,17,Male,Right,309,Block 3,0.7056903999909991,0.125,true,bird,bird,occlusion,control,mask,partial viewing,few large,Stimulus\all_stim\occlusion\partialviewing\fewlarge\control\fewlarge_partialViewing_control_bird10.png,mask_img/000000001053.png,experiment,p,p,866.7731665000028
3,17,Male,Right,310,Block 3,0.6065109000046505,0.05,true,building,building,occlusion,low,mask,partial viewing,many small,Stimulus\all_stim\occlusion\partialviewing\manysmall\low\manysmall_partialViewing_low_building9.png,mask_img/000000058102.png,experiment,q,q,868.2897877000069
3,17,Male,Right,311,Block 3,0.7739571999991313,0.125,true,bird,bird,occlusion,control,mask,partial viewing,many small,Stimulus\all_stim\occlusion\partialviewing\manysmall\control\manysmall_partialViewing_control_bird4.png,mask_img/000000034691.png,experiment,p,p,869.7251327999984
3,17,Male,Right,312,Block 3,0.6352392999979202,0.125,true,bus,bus,occlusion,control,mask,partial viewing,many small,Stimulus\all_stim\occlusion\partialviewing\manysmall\control\manysmall_partialViewing_control_bus8.png,mask_img/000000037782.png,experiment,w,w,871.2255098000023
3,17,Male,Right,313,Block 3,1.1710563999949954,0.05,true,firehydrant,firehydrant,occlusion,high,mask,partial viewing,many small,Stimulus\all_stim\occlusion\partialviewing\manysmall\high\manysmall_partialViewing_high_firehydrant8.png,mask_img/000000050794.png,experiment,u,u,873.1332006000011
3,17,Male,Right,314,Block 3,0.670976100009284,0.05,true,bus,bus,occlusion,control,mask,partial viewing,few large,Stimulus\all_stim\occlusion\partialviewing\fewlarge\control\fewlarge_partialViewing_control_bus6.png,mask_img/000000005862.png,experiment,w,w,874.5811138999998
3,17,Male,Right,315,Block 3,0.9929616000008537,0.125,true,firehydrant,firehydrant,occlusion,control,mask,partial viewing,many small,Stimulus\all_stim\occlusion\partialviewing\manysmall\control\manysmall_partialViewing_control_firehydrant4.png,mask_img/000000039141.png,experiment,u,u,876.5815825000027
3,17,Male,Right,316,Block 3,1.073187500005588,0.025,false,cat,bird,occlusion,low,mask,partial viewing,few large,Stimulus\all_stim\occlusion\partialviewing\fewlarge\low\fewlarge_partialViewing_low_cat10.png,mask_img/000000027319.png,experiment,p,o,878.5009456999978
3,17,Male,Right,317,Block 3,0.6384255999873858,0.05,false,bus,building,occlusion,low,mask,partial viewing,few large,Stimulus\all_stim\occlusion\partialviewing\fewlarge\low\fewlarge_partialViewing_low_bus6.png,mask_img/000000026503.png,experiment,q,w,880.1971814999997
3,17,Male,Right,318,Block 3,0.9040222000039648,0.125,true,cat,cat,occlusion,control,mask,partial viewing,few large,Stimulus\all_stim\occlusion\partialviewing\fewlarge\control\fewlarge_partialViewing_control_cat10.png,mask_img/000000006481.png,experiment,o,o,881.9889148000075
3,17,Male,Right,319,Block 3,0.7746175000065705,0.05,true,tree,tree,occlusion,control,mask,partial viewing,many small,Stimulus\all_stim\occlusion\partialviewing\manysmall\control\manysmall_partialViewing_control_tree4.png,mask_img/000000041022.png,experiment,r,r,883.7889793000068
3,17,Male,Right,320,Block 3,0.7247950000019046,0.05,true,bus,bus,occlusion,low,mask,partial viewing,few large,Stimulus\all_stim\occlusion\partialviewing\fewlarge\low\fewlarge_partialViewing_low_bus5.png,mask_img/000000026497.png,experiment,w,w,885.5649384999997
3,17,Male,Right,321,Block 3,0.5489189000072656,0.025,true,bus,bus,occlusion,control,mask,partial viewing,many small,Stimulus\all_stim\occlusion\partialviewing\manysmall\control\manysmall_partialViewing_control_bus8.png,mask_img/000000037782.png,experiment,w,w,887.0800155000034
3,17,Male,Right,322,Block 3,1.230647600008524,0.05,true,cat,cat,occlusion,control,mask,partial viewing,few large,Stimulus\all_stim\occlusion\partialviewing\fewlarge\control\fewlarge_partialViewing_control_cat5.png,mask_img/000000006870.png,experiment,o,o,889.4288484999997
3,17,Male,Right,323,Block 3,0.7658676999999443,0.125,true,building,building,occlusion,low,mask,partial viewing,many small,Stimulus\all_stim\occlusion\partialviewing\manysmall\low\manysmall_partialViewing_low_building1.png,mask_img/000000056716.png,experiment,q,q,891.0927861999953
3,17,Male,Right,324,Block 3,0.7185441999899922,0.025,true,person,person,occlusion,high,mask,partial viewing,few large,Stimulus\all_stim\occlusion\partialviewing\fewlarge\high\fewlarge_partialViewing_high_person1.png,mask_img/000000019759.png,experiment,i,i,892.8868229000072
3,17,Male,Right,325,Block 3,0.7133753999951296,0.125,true,bird,bird,occlusion,high,mask,partial viewing,few large,Stimulus\all_stim\occlusion\partialviewing\fewlarge\high\fewlarge_partialViewing_high_bird1.png,mask_img/000000013061.png,experiment,p,p,894.4529039000045
3,17,Male,Right,326,Block 3,0.7743981999956304,0.05,true,cat,cat,occlusion,low,mask,partial viewing,many small,Stimulus\all_stim\occlusion\partialviewing\manysmall\low\manysmall_partialViewing_low_cat5.png,mask_img/000000059660.png,experiment,o,o,896.0849060000037
3,17,Male,Right,327,Block 3,0.5229608000081498,0.05,true,bird,bird,occlusion,control,mask,partial viewing,many small,Stimulus\all_stim\occlusion\partialviewing\manysmall\control\manysmall_partialViewing_control_bird2.png,mask_img/000000034455.png,experiment,p,p,897.4690348000004
3,17,Male,Right,328,Block 3,0.6582480000070063,0.125,false,tree,bus,occlusion,control,mask,partial viewing,many small,Stimulus\all_stim\occlusion\partialviewing\manysmall\control\manysmall_partialViewing_control_tree6.png,mask_img/000000041272.png,experiment,w,r,898.8178962999955
3,17,Male,Right,329,Block 3,0.6185066999896662,0.025,false,firehydrant,person,occlusion,control,mask,partial viewing,many small,Stimulus\all_stim\occlusion\partialviewing\manysmall\control\manysmall_partialViewing_control_firehydrant4.png,mask_img/000000039141.png,experiment,i,u,900.2368588999962
3,17,Male,Right,330,Block 3,0.7804761000006692,0.025,true,firehydrant,firehydrant,occlusion,high,mask,partial viewing,many small,Stimulus\all_stim\occlusion\partialviewing\manysmall\high\manysmall_partialViewing_high_firehydrant1.png,mask_img/000000049987.png,experiment,u,u,901.7568969999993
3,17,Male,Right,331,Block 3,1.0994387999962782,0.025,false,banana,cat,occlusion,high,mask,partial viewing,few large,Stimulus\all_stim\occlusion\partialviewing\fewlarge\high\fewlarge_partialViewing_high_banana10.png,mask_img/000000012178.png,experiment,o,e,903.5251931999956
3,17,Male,Right,332,Block 3,0.7763376999937464,0.05,true,firehydrant,firehydrant,occlusion,low,mask,partial viewing,few large,Stimulus\all_stim\occlusion\partialviewing\fewlarge\low\fewlarge_partialViewing_low_firehydrant3.png,mask_img/000000028518.png,experiment,u,u,905.0370881999988
3,17,Male,Right,333,Block 3,0.7253478999919025,0.025,true,bus,bus,occlusion,high,mask,partial viewing,few large,Stimulus\all_stim\occlusion\partialviewing\fewlarge\high\fewlarge_partialViewing_high_bus1.png,mask_img/000000015645.png,experiment,w,w,906.4689274999982
3,17,Male,Right,334,Block 3,0.7746843000059016,0.025,false,bird,cat,occlusion,low,mask,partial viewing,many small,Stimulus\all_stim\occlusion\partialviewing\manysmall\low\manysmall_partialViewing_low_bird1.png,mask_img/000000055694.png,experiment,o,p,908.0612779000076
