pt_num,trial_nbr,block_number,rt,soa,acc,category,choiced_category,manipulation,difficulty,mask,type_occl,size_occl,filename,mask_filename,task,pressed_key,correct_key
12,1,Training,1.5042796999987331,0.1,correct,tree,tree,occlusion,low,no mask,partial viewing,,Training\Training Stimulus\partialViewinglowmatched_tree30.png,./mask_img/grey_square.png,training,u,u
12,2,Training,1.265308999994886,0.1,correct,bus,bus,occlusion,low,mask,partial viewing,,Training\Training Stimulus\partialViewinglowmatched_bus127.png,mask_img/000000006590.png,training,p,p
12,3,Training,1.6161315999997896,0.05,correct,firehydrant,firehydrant,occlusion,low,no mask,partial viewing,,Training\Training Stimulus\partialViewinglowmatched_firehydrant149.png,./mask_img/grey_square.png,training,w,w
12,4,Training,0.8814444999952684,0.1,correct,firehydrant,firehydrant,occlusion,low,no mask,blob,,Training\Training Stimulus\bloblowmatched_firehydrant570.png,./mask_img/grey_square.png,training,w,w
12,5,Training,1.5033485000021756,0.2,correct,building,building,control,control,mask,,,Training\Training Stimulus\control_building95.png,mask_img/000000002239.png,training,e,e
12,6,Training,1.65901660000236,0.1,correct,banana,banana,control,control,mask,,,Training\Training Stimulus\control_banana3666.png,mask_img/000000001966.png,training,i,i
12,7,Training,1.197295199999644,0.05,false,bus,building,occlusion,high,mask,partial viewing,,Training\Training Stimulus\partialViewinghighmatched_bus765.png,mask_img/000000005619.png,training,e,p
12,8,Training,0.9360470000028727,0.05,correct,building,building,occlusion,high,no mask,blob,,Training\Training Stimulus\blobhighmatched_building13.png,./mask_img/grey_square.png,training,e,e
12,9,Training,1.3663109999979497,0.05,correct,person,person,occlusion,high,no mask,deletion,,Training\Training Stimulus\deletionhighmatched_person71.png,./mask_img/grey_square.png,training,r,r
12,10,Training,0.9262096000020392,0.2,false,firehydrant,person,occlusion,high,no mask,deletion,,Training\Training Stimulus\deletionhighmatched_firehydrant226.png,./mask_img/grey_square.png,training,r,w
12,11,Training,1.0361040999996476,0.2,correct,firehydrant,firehydrant,occlusion,low,no mask,deletion,,Training\Training Stimulus\deletionlowmatched_firehydrant552.png,./mask_img/grey_square.png,training,w,w
12,12,Training,1.8687307999935001,0.2,correct,bird,bird,occlusion,low,mask,blob,,Training\Training Stimulus\bloblowmatched_bird289.png,mask_img/000000001282.png,training,q,q
12,13,Training,1.5408067000025767,0.05,correct,banana,banana,control,control,mask,,,Training\Training Stimulus\control_banana3666.png,mask_img/000000001966.png,training,i,i
12,14,Training,1.348750500001188,0.05,false,bird,cat,occlusion,high,mask,partial viewing,,Training\Training Stimulus\partialViewinghighmatched_bird2883.png,mask_img/000000005385.png,training,o,q
12,15,Training,0.9116827999969246,0.1,false,banana,cat,occlusion,high,mask,partial viewing,,Training\Training Stimulus\partialViewinghighmatched_banana726.png,mask_img/000000005313.png,training,o,i
12,16,Training,1.125878400001966,0.05,correct,bird,bird,control,control,no mask,,,Training\Training Stimulus\control_bird259.png,./mask_img/grey_square.png,training,q,q
12,17,Training,1.2590583999990486,0.1,correct,person,person,occlusion,low,mask,partial viewing,,Training\Training Stimulus\partialViewinglowmatched_person3250.png,mask_img/000000006842.png,training,r,r
12,18,Training,1.2331878000040888,0.05,correct,building,building,occlusion,high,mask,blob,,Training\Training Stimulus\blobhighmatched_building13.png,mask_img/000000000510.png,training,e,e
12,19,Training,1.3883184000005713,0.2,correct,banana,banana,occlusion,high,mask,blob,,Training\Training Stimulus\blobhighmatched_banana2093.png,mask_img/000000000009.png,training,i,i
12,20,Training,1.2931339999995544,0.2,correct,person,person,occlusion,high,no mask,blob,,Training\Training Stimulus\blobhighmatched_person2850.png,./mask_img/grey_square.png,training,r,r
12,21,Training,1.337144699995406,0.05,false,cat,tree,occlusion,high,no mask,partial viewing,,Training\Training Stimulus\partialViewinghighmatched_cat864.png,./mask_img/grey_square.png,training,u,o
12,22,Training,1.1849122999992687,0.2,correct,building,building,occlusion,high,no mask,partial viewing,,Training\Training Stimulus\partialViewinghighmatched_building21.png,./mask_img/grey_square.png,training,e,e
12,23,Training,1.3376710000011371,0.05,correct,tree,tree,occlusion,low,mask,partial viewing,,Training\Training Stimulus\partialViewinglowmatched_tree30.png,mask_img/000000006870.png,training,u,u
12,24,Training,1.39560899999924,0.05,correct,person,person,occlusion,high,mask,blob,,Training\Training Stimulus\blobhighmatched_person2850.png,mask_img/000000000711.png,training,r,r
12,25,Training,0.9998681000070064,0.1,correct,person,person,occlusion,low,no mask,partial viewing,,Training\Training Stimulus\partialViewinglowmatched_person3250.png,./mask_img/grey_square.png,training,r,r
12,26,Training,1.6926814999969793,0.1,correct,bird,bird,occlusion,low,mask,blob,,Training\Training Stimulus\bloblowmatched_bird289.png,mask_img/000000001282.png,training,q,q
12,27,Training,1.6351528999948641,0.2,correct,tree,tree,occlusion,low,no mask,partial viewing,,Training\Training Stimulus\partialViewinglowmatched_tree30.png,./mask_img/grey_square.png,training,u,u
12,28,Training,1.8963989999974729,0.05,correct,firehydrant,firehydrant,occlusion,high,mask,blob,,Training\Training Stimulus\blobhighmatched_firehydrant125.png,mask_img/000000000675.png,training,w,w
12,29,Training,1.4622931999983848,0.1,false,firehydrant,building,occlusion,high,mask,partial viewing,,Training\Training Stimulus\partialViewinghighmatched_firehydrant72.png,mask_img/000000006091.png,training,e,w
12,30,Training,0.8769524000017554,0.2,correct,building,building,occlusion,low,no mask,blob,,Training\Training Stimulus\bloblowmatched_building64.png,./mask_img/grey_square.png,training,e,e
12,31,Training,2.285796500000288,0.1,correct,bird,bird,occlusion,high,mask,blob,,Training\Training Stimulus\blobhighmatched_bird2861.png,mask_img/000000000294.png,training,q,q
12,32,Training,1.049420299998019,0.1,correct,person,person,control,control,no mask,,,Training\Training Stimulus\control_person1905.png,./mask_img/grey_square.png,training,r,r
12,33,Training,1.3635063000037917,0.2,correct,bus,bus,occlusion,low,no mask,blob,,Training\Training Stimulus\bloblowmatched_bus938.png,./mask_img/grey_square.png,training,p,p
12,34,Training,1.4732884999975795,0.05,correct,cat,cat,occlusion,low,mask,blob,,Training\Training Stimulus\bloblowmatched_cat1021.png,mask_img/000000001599.png,training,o,o
12,35,Training,1.9517498999994132,0.05,correct,banana,banana,occlusion,high,mask,partial viewing,,Training\Training Stimulus\partialViewinghighmatched_banana726.png,mask_img/000000005313.png,training,i,i
12,36,Training,1.25425720000203,0.1,correct,building,building,occlusion,high,no mask,deletion,,Training\Training Stimulus\deletionhighmatched_building66.png,./mask_img/grey_square.png,training,e,e
12,37,Training,1.3957971000054386,0.2,false,firehydrant,person,occlusion,high,mask,deletion,,Training\Training Stimulus\deletionhighmatched_firehydrant226.png,mask_img/000000003865.png,training,r,w
12,38,Training,1.1593527000004542,0.2,false,bus,building,occlusion,high,mask,partial viewing,,Training\Training Stimulus\partialViewinghighmatched_bus765.png,mask_img/000000005619.png,training,e,p
12,39,Training,1.0043618999989121,0.05,correct,person,person,occlusion,low,no mask,deletion,,Training\Training Stimulus\deletionlowmatched_person1622.png,./mask_img/grey_square.png,training,r,r
12,40,Training,1.1284091000052285,0.05,false,firehydrant,person,occlusion,high,mask,deletion,,Training\Training Stimulus\deletionhighmatched_firehydrant226.png,mask_img/000000003865.png,training,r,w
12,41,Training,0.9624221000049147,0.2,correct,bird,bird,occlusion,high,mask,blob,,Training\Training Stimulus\blobhighmatched_bird2861.png,mask_img/000000000294.png,training,q,q
12,42,Training,1.091914300006465,0.05,false,cat,building,occlusion,high,mask,partial viewing,,Training\Training Stimulus\partialViewinghighmatched_cat864.png,mask_img/000000006042.png,training,e,o
12,43,Training,2.370507699997688,0.1,correct,cat,cat,occlusion,low,mask,partial viewing,,Training\Training Stimulus\partialViewinglowmatched_cat341.png,mask_img/000000006662.png,training,o,o
12,44,Training,1.2877066000000923,0.05,correct,person,person,control,control,no mask,,,Training\Training Stimulus\control_person1905.png,./mask_img/grey_square.png,training,r,r
12,45,Training,1.1273423000020557,0.1,correct,cat,cat,control,control,mask,,,Training\Training Stimulus\control_cat147.png,mask_img/000000002591.png,training,o,o
12,46,Training,1.4152011000041966,0.2,correct,firehydrant,firehydrant,control,control,mask,,,Training\Training Stimulus\control_firehydrant46.png,mask_img/000000002902.png,training,w,w
12,47,Training,1.1933369999969727,0.05,correct,cat,cat,occlusion,low,mask,deletion,,Training\Training Stimulus\deletionlowmatched_cat356.png,mask_img/000000004970.png,training,o,o
12,48,Training,0.9744254999968689,0.05,correct,person,person,occlusion,low,no mask,blob,,Training\Training Stimulus\bloblowmatched_person411.png,./mask_img/grey_square.png,training,r,r
12,49,Training,2.1628762999971514,0.1,false,cat,tree,occlusion,high,no mask,partial viewing,,Training\Training Stimulus\partialViewinghighmatched_cat864.png,./mask_img/grey_square.png,training,u,o
12,50,Training,1.0924090000044089,0.2,correct,cat,cat,occlusion,low,no mask,partial viewing,,Training\Training Stimulus\partialViewinglowmatched_cat341.png,./mask_img/grey_square.png,training,o,o
12,51,Training,0.9675691000011284,0.05,correct,cat,cat,occlusion,low,no mask,blob,,Training\Training Stimulus\bloblowmatched_cat1021.png,./mask_img/grey_square.png,training,o,o
12,52,Training,1.0850117999943905,0.2,correct,bird,bird,control,control,mask,,,Training\Training Stimulus\control_bird259.png,mask_img/000000002068.png,training,q,q
12,53,Training,1.4357687000010628,0.2,correct,tree,tree,occlusion,low,no mask,deletion,,Training\Training Stimulus\deletionlowmatched_tree37.png,./mask_img/grey_square.png,training,u,u
12,54,Training,1.1051376999967033,0.2,correct,person,person,occlusion,high,no mask,partial viewing,,Training\Training Stimulus\partialViewinghighmatched_person157.png,./mask_img/grey_square.png,training,r,r
12,55,Training,1.190738199999032,0.05,correct,tree,tree,control,control,mask,,,Training\Training Stimulus\control_tree2.png,mask_img/000000003160.png,training,u,u
12,56,Training,1.6627865999980713,0.1,correct,building,building,occlusion,high,mask,blob,,Training\Training Stimulus\blobhighmatched_building13.png,mask_img/000000000510.png,training,e,e
12,57,Training,1.2980345000032685,0.1,correct,person,person,occlusion,low,no mask,blob,,Training\Training Stimulus\bloblowmatched_person411.png,./mask_img/grey_square.png,training,r,r
12,1,Block 1,1.1558375000022352,0.2,false,firehydrant,building,occlusion,high,mask,partial viewing,few large,Stimulus\all_stim\occlusion\few_large\partial_viewing\high\fewlargepartialViewinghighmatched_firehydrant7.png,mask_img/000000070408.png,experiment,e,w
12,2,Block 1,1.693357100004505,0.05,correct,building,building,occlusion,low,no mask,partial viewing,few large,Stimulus\all_stim\occlusion\few_large\partial_viewing\low\fewlargepartialViewinglowmatched_building7.png,./mask_img/grey_square.png,experiment,e,e
12,3,Block 1,1.1833685999954469,0.2,correct,firehydrant,firehydrant,clutter,light,no mask,,,Stimulus\all_stim\clutter\light_clutter\lightclutterfirehydrant1.png,./mask_img/grey_square.png,experiment,w,w
12,4,Block 1,1.381442900004913,0.05,correct,tree,tree,occlusion,low,no mask,partial viewing,few large,Stimulus\all_stim\occlusion\few_large\partial_viewing\low\fewlargepartialViewinglowmatched_tree7.png,./mask_img/grey_square.png,experiment,u,u
12,5,Block 1,1.0606604999993579,0.2,correct,tree,tree,scrambling,hp_,mask,,,Stimulus\all_stim\scrambling\highpass\hp_matched_tree9.png,mask_img/000000148587.png,experiment,u,u
12,6,Block 1,1.5546373000033782,0.2,correct,bus,bus,control,control,mask,,,Stimulus\all_stim\control\control_bus6.png,mask_img/000000020825.png,experiment,p,p
12,7,Block 1,1.5994668999992427,0.05,correct,building,building,control,control,mask,,,Stimulus\all_stim\control\control_building8.png,mask_img/000000019431.png,experiment,e,e
12,8,Block 1,1.6500214000043343,0.2,correct,cat,cat,occlusion,low,no mask,partial viewing,few large,Stimulus\all_stim\occlusion\few_large\partial_viewing\low\fewlargepartialViewinglowmatched_cat8.png,./mask_img/grey_square.png,experiment,o,o
12,9,Block 1,1.0232767999987118,0.2,correct,cat,cat,occlusion,low,no mask,blob,many small,Stimulus\all_stim\occlusion\many_small\blobs\low\manysmallbloblowmatched_cat9.png,./mask_img/grey_square.png,experiment,o,o
12,10,Block 1,1.8241867999968235,0.2,correct,banana,banana,control,control,no mask,,,Stimulus\all_stim\control\control_banana9.png,./mask_img/grey_square.png,experiment,i,i
12,11,Block 1,1.2721173999962048,0.1,correct,building,building,clutter,heavy,mask,,,Stimulus\all_stim\clutter\heavy_clutter\heavyclutterbuilding7.png,mask_img/000000003779.png,experiment,e,e
