pt_num,Age,Gender,Handedness,trial_nbr,block_number,rt,soa,acc,category,choiced_category,manipulation,difficulty,mask,type_occl,size_occl,filename,mask_filename,task,pressed_key,correct_key,Experiment Duration
3,21,Male,Right,1,Training,9.296198300005926,0.025,false,firehydrant,bus,occlusion,control,mask,partial viewing,few large,Training_Stimulus\fewlarge_partialViewing_control_firehydrant154.png,mask_img/000000000459.png,training,w,r,338.9412083999996
3,21,Male,Right,2,Training,2.000685400002112,0.1,true,firehydrant,firehydrant,occlusion,control,mask,partial viewing,few large,Training_Stimulus\fewlarge_partialViewing_control_firehydrant154.png,mask_img/000000000459.png,training,r,r,342.0168470999997
3,21,Male,Right,3,Training,2.198638200003188,0.1,true,bird,bird,occlusion,control,mask,partial viewing,few large,Training_Stimulus\fewlarge_partialViewing_control_bird394.png,mask_img/000000000109.png,training,p,p,345.6965558000011
3,21,Male,Right,4,Training,10.681722600005742,0.05,false,banana,NAN,occlusion,control,mask,partial viewing,few large,Training_Stimulus\fewlarge_partialViewing_control_banana589.png,mask_img/000000000042.png,training,NAN,q,357.5125449999978
3,21,Male,Right,5,Training,3.5985911000025226,0.025,false,tree,building,occlusion,high,mask,partial viewing,many small,Training_Stimulus\manysmall_partialViewing_high_tree25.png,mask_img/000000006263.png,training,o,i,362.49756499999785
3,21,Male,Right,6,Training,1.48135939999338,0.05,false,bus,building,occlusion,high,mask,partial viewing,few large,Training_Stimulus\fewlarge_partialViewing_high_bus929.png,mask_img/000000001053.png,training,o,w,365.20112649999646
3,21,Male,Right,7,Training,3.7802641000016592,0.1,false,firehydrant,bird,occlusion,low,mask,partial viewing,many small,Training_Stimulus\manysmall_partialViewing_low_firehydrant205.png,mask_img/000000006870.png,training,p,r,370.10745809999935
3,21,Male,Right,8,Training,1.6976451000009547,0.05,true,building,building,occlusion,high,mask,partial viewing,few large,Training_Stimulus\fewlarge_partialViewing_high_building71.png,mask_img/000000000873.png,training,o,o,373.3276110000006
3,21,Male,Right,9,Training,1.8334528999985196,0.05,true,building,building,occlusion,high,mask,partial viewing,many small,Training_Stimulus\manysmall_partialViewing_high_building48.png,mask_img/000000005574.png,training,o,o,376.51734769999894
3,21,Male,Right,10,Training,3.419985100001213,0.1,false,bird,bus,occlusion,high,mask,partial viewing,many small,Training_Stimulus\manysmall_partialViewing_high_bird1073.png,mask_img/000000005418.png,training,w,p,381.0029272999964
3,21,Male,Right,11,Training,1.4404295999993337,0.05,false,person,building,occlusion,high,mask,partial viewing,few large,Training_Stimulus\fewlarge_partialViewing_high_person189.png,mask_img/000000001997.png,training,o,u,383.520494299999
3,21,Male,Right,12,Training,2.257455699997081,0.1,true,bus,bus,occlusion,low,mask,partial viewing,few large,Training_Stimulus\fewlarge_partialViewing_low_bus630.png,mask_img/000000002892.png,training,w,w,386.89765869999974
3,21,Male,Right,13,Training,2.252113000002282,0.1,true,banana,banana,occlusion,high,mask,partial viewing,few large,Training_Stimulus\fewlarge_partialViewing_high_banana1022.png,mask_img/000000000690.png,training,q,q,390.52140350000263
3,21,Male,Right,14,Training,2.356875299999956,0.1,false,building,bus,occlusion,control,mask,partial viewing,few large,Training_Stimulus\fewlarge_partialViewing_control_building48.png,mask_img/000000000312.png,training,w,o,394.08515479999915
3,21,Male,Right,15,Training,1.7092637000023387,0.025,false,person,tree,occlusion,control,mask,partial viewing,many small,Training_Stimulus\manysmall_partialViewing_control_person189.png,mask_img/000000005142.png,training,i,u,396.94534929999645
3,21,Male,Right,16,Training,1.560055400004785,0.025,true,banana,banana,occlusion,low,mask,partial viewing,many small,Training_Stimulus\manysmall_partialViewing_low_banana589.png,mask_img/000000006437.png,training,q,q,400.025690399998
3,21,Male,Right,17,Training,1.4781612000006135,0.1,false,person,bus,occlusion,low,mask,partial viewing,few large,Training_Stimulus\fewlarge_partialViewing_low_person587.png,mask_img/000000003483.png,training,w,u,402.5748625999986
3,21,Male,Right,18,Training,1.388665900005435,0.025,true,building,building,occlusion,low,mask,partial viewing,many small,Training_Stimulus\manysmall_partialViewing_low_building24.png,mask_img/000000006489.png,training,o,o,405.18596830000024
3,21,Male,Right,19,Training,1.3904011999984505,0.1,true,bus,bus,occlusion,control,mask,partial viewing,few large,Training_Stimulus\fewlarge_partialViewing_control_bus630.png,mask_img/000000000394.png,training,w,w,408.05092460000014
3,21,Male,Right,20,Training,3.4102532000033534,0.025,false,cat,tree,occlusion,high,mask,partial viewing,many small,Training_Stimulus\manysmall_partialViewing_high_cat511.png,mask_img/000000005862.png,training,i,e,412.62947580000036
3,21,Male,Right,21,Training,2.052563099998224,0.05,false,cat,building,occlusion,low,mask,partial viewing,few large,Training_Stimulus\fewlarge_partialViewing_low_cat593.png,mask_img/000000003084.png,training,o,e,416.04162240000005
3,21,Male,Right,22,Training,1.261092999993707,0.025,false,cat,bird,occlusion,control,mask,partial viewing,many small,Training_Stimulus\manysmall_partialViewing_control_cat511.png,mask_img/000000005105.png,training,p,e,418.57276360000105
3,21,Male,Right,23,Training,2.212719900002412,0.1,true,bird,bird,occlusion,high,mask,partial viewing,few large,Training_Stimulus\fewlarge_partialViewing_high_bird394.png,mask_img/000000000731.png,training,p,p,422.291905099999
3,21,Male,Right,24,Training,2.118484799997532,0.1,true,cat,cat,occlusion,low,mask,partial viewing,few large,Training_Stimulus\fewlarge_partialViewing_low_cat593.png,mask_img/000000003084.png,training,e,e,425.77934249999817
3,21,Male,Right,25,Training,1.9176168000049074,0.025,false,firehydrant,bus,occlusion,low,mask,partial viewing,many small,Training_Stimulus\manysmall_partialViewing_low_firehydrant205.png,mask_img/000000006870.png,training,w,r,428.79673390000244
3,21,Male,Right,26,Training,1.1074612000011257,0.1,true,banana,banana,occlusion,low,mask,partial viewing,few large,Training_Stimulus\fewlarge_partialViewing_low_banana1022.png,mask_img/000000002337.png,training,q,q,431.15761740000016
3,21,Male,Right,27,Training,2.179372799997509,0.025,true,person,person,occlusion,high,mask,partial viewing,many small,Training_Stimulus\manysmall_partialViewing_high_person475.png,mask_img/000000006153.png,training,u,u,434.7669324000017
3,21,Male,Right,28,Training,2.204329400003189,0.025,false,bus,tree,occlusion,high,mask,partial viewing,many small,Training_Stimulus\manysmall_partialViewing_high_bus630.png,mask_img/000000005615.png,training,i,w,438.3330550000028
3,21,Male,Right,29,Training,2.1640793999977177,0.025,false,person,cat,occlusion,low,mask,partial viewing,few large,Training_Stimulus\fewlarge_partialViewing_low_person587.png,mask_img/000000003483.png,training,e,u,441.57001239999954
3,21,Male,Right,30,Training,1.8619542000014917,0.025,true,building,building,occlusion,low,mask,partial viewing,few large,Training_Stimulus\fewlarge_partialViewing_low_building71.png,mask_img/000000002822.png,training,o,o,444.5832567999969
3,21,Male,Right,31,Training,3.358427200000733,0.05,false,person,bird,occlusion,low,mask,partial viewing,many small,Training_Stimulus\manysmall_partialViewing_low_person587.png,mask_img/000000007179.png,training,p,u,449.44337950000045
3,21,Male,Right,32,Training,1.4438584999952582,0.025,true,banana,banana,occlusion,control,mask,partial viewing,many small,Training_Stimulus\manysmall_partialViewing_control_banana1022.png,mask_img/000000004239.png,training,q,q,452.05627970000205
3,21,Male,Right,33,Training,1.8998922999962815,0.025,false,bus,building,occlusion,high,mask,partial viewing,few large,Training_Stimulus\fewlarge_partialViewing_high_bus929.png,mask_img/000000001053.png,training,o,w,455.3472533999957
3,21,Male,Right,34,Training,1.165457700000843,0.05,false,tree,banana,occlusion,control,mask,partial viewing,many small,Training_Stimulus\manysmall_partialViewing_control_tree25.png,mask_img/000000005282.png,training,q,i,457.7823958000008
3,21,Male,Right,35,Training,1.4393137999941246,0.05,false,person,cat,occlusion,high,mask,partial viewing,many small,Training_Stimulus\manysmall_partialViewing_high_person475.png,mask_img/000000006153.png,training,e,u,460.325636900001
3,21,Male,Right,36,Training,1.2192732999974396,0.025,false,bird,bus,occlusion,high,mask,partial viewing,few large,Training_Stimulus\fewlarge_partialViewing_high_bird394.png,mask_img/000000000731.png,training,w,p,463.06670170000143
3,21,Male,Right,37,Training,2.9108562000037637,0.1,false,tree,person,occlusion,control,mask,partial viewing,many small,Training_Stimulus\manysmall_partialViewing_control_tree25.png,mask_img/000000005282.png,training,u,i,467.23971840000013
3,21,Male,Right,38,Training,1.5047206000017468,0.05,true,bus,bus,occlusion,high,mask,partial viewing,many small,Training_Stimulus\manysmall_partialViewing_high_bus630.png,mask_img/000000005615.png,training,w,w,470.25671480000165
3,21,Male,Right,39,Training,1.8741809999992256,0.1,false,bird,cat,occlusion,low,mask,partial viewing,few large,Training_Stimulus\fewlarge_partialViewing_low_bird1073.png,mask_img/000000002774.png,training,e,p,473.5372051000013
3,21,Male,Right,40,Training,1.1186981999999261,0.025,false,firehydrant,banana,occlusion,high,mask,partial viewing,few large,Training_Stimulus\fewlarge_partialViewing_high_firehydrant90.png,mask_img/000000001810.png,training,q,r,475.94681229999696
3,21,Male,Right,41,Training,1.3116908999945736,0.025,true,bus,bus,occlusion,low,mask,partial viewing,few large,Training_Stimulus\fewlarge_partialViewing_low_bus630.png,mask_img/000000002892.png,training,w,w,478.6207415000026
3,21,Male,Right,42,Training,0.9764773999995668,0.025,true,bus,bus,occlusion,low,mask,partial viewing,many small,Training_Stimulus\manysmall_partialViewing_low_bus630.png,mask_img/000000006709.png,training,w,w,481.1374039000002
3,21,Male,Right,43,Training,1.45099549999577,0.1,true,banana,banana,occlusion,control,mask,partial viewing,many small,Training_Stimulus\manysmall_partialViewing_control_banana1022.png,mask_img/000000004239.png,training,q,q,483.70227010000235
3,21,Male,Right,44,Training,1.5817954000012833,0.025,true,firehydrant,firehydrant,occlusion,control,mask,partial viewing,many small,Training_Stimulus\manysmall_partialViewing_control_firehydrant154.png,mask_img/000000005131.png,training,r,r,486.7814911000023
3,21,Male,Right,45,Training,3.7609456999998656,0.1,false,banana,building,occlusion,high,mask,partial viewing,many small,Training_Stimulus\manysmall_partialViewing_high_banana589.png,mask_img/000000005359.png,training,o,q,491.7209002000018
3,21,Male,Right,46,Training,1.3612196999965818,0.025,false,cat,bird,occlusion,high,mask,partial viewing,few large,Training_Stimulus\fewlarge_partialViewing_high_cat511.png,mask_img/000000001647.png,training,p,e,494.23759399999835
3,21,Male,Right,47,Training,1.8006402000028174,0.025,true,cat,cat,occlusion,low,mask,partial viewing,many small,Training_Stimulus\manysmall_partialViewing_low_cat593.png,mask_img/000000006842.png,training,e,e,497.29990610000095
3,21,Male,Right,48,Training,2.0315312999955495,0.1,true,person,person,occlusion,control,mask,partial viewing,many small,Training_Stimulus\manysmall_partialViewing_control_person189.png,mask_img/000000005142.png,training,u,u,500.8665781000018
3,21,Male,Right,49,Training,1.1133363000044483,0.05,true,person,person,occlusion,control,mask,partial viewing,many small,Training_Stimulus\manysmall_partialViewing_control_person189.png,mask_img/000000005142.png,training,u,u,503.48998779999965
3,21,Male,Right,50,Training,1.70066450000013,0.1,true,cat,cat,occlusion,control,mask,partial viewing,few large,Training_Stimulus\fewlarge_partialViewing_control_cat511.png,mask_img/000000000438.png,training,e,e,506.67941450000217
3,21,Male,Right,51,Training,1.3306041000032565,0.05,true,firehydrant,firehydrant,occlusion,low,mask,partial viewing,few large,Training_Stimulus\fewlarge_partialViewing_low_firehydrant205.png,mask_img/000000003225.png,training,r,r,509.103076899999
3,21,Male,Right,52,Training,1.5219957000008435,0.05,true,person,person,occlusion,control,mask,partial viewing,few large,Training_Stimulus\fewlarge_partialViewing_control_person475.png,mask_img/000000000595.png,training,u,u,512.0114656000005
3,21,Male,Right,53,Training,1.794668399998045,0.1,true,tree,tree,occlusion,low,mask,partial viewing,few large,Training_Stimulus\fewlarge_partialViewing_low_tree17.png,mask_img/000000003694.png,training,i,i,515.0753425000003
3,21,Male,Right,54,Training,6.446653300001344,0.05,false,tree,building,occlusion,high,mask,partial viewing,many small,Training_Stimulus\manysmall_partialViewing_high_tree25.png,mask_img/000000006263.png,training,o,i,522.7969784000015
3,21,Male,Right,55,Training,1.4861233000046923,0.025,true,cat,cat,occlusion,control,mask,partial viewing,few large,Training_Stimulus\fewlarge_partialViewing_control_cat511.png,mask_img/000000000438.png,training,e,e,525.8155358000004
3,21,Male,Right,56,Training,2.371239300002344,0.05,true,bird,bird,occlusion,high,mask,partial viewing,few large,Training_Stimulus\fewlarge_partialViewing_high_bird394.png,mask_img/000000000731.png,training,p,p,529.3173551
3,21,Male,Right,57,Training,3.501590699997905,0.05,false,bird,tree,occlusion,low,mask,partial viewing,many small,Training_Stimulus\manysmall_partialViewing_low_bird394.png,mask_img/000000006481.png,training,i,p,534.1839254000006
3,21,Male,Right,58,Training,1.0673750999994809,0.025,true,banana,banana,occlusion,control,mask,partial viewing,few large,Training_Stimulus\fewlarge_partialViewing_control_banana589.png,mask_img/000000000042.png,training,q,q,536.498019599996
3,21,Male,Right,59,Training,3.75337259999651,0.05,false,firehydrant,bus,occlusion,high,mask,partial viewing,many small,Training_Stimulus\manysmall_partialViewing_high_firehydrant90.png,mask_img/000000006146.png,training,w,r,541.5156069000004
3,21,Male,Right,60,Training,2.2569452000025194,0.1,false,tree,cat,occlusion,high,mask,partial viewing,few large,Training_Stimulus\fewlarge_partialViewing_high_tree25.png,mask_img/000000002197.png,training,e,i,544.9254211000007
3,21,Male,Right,61,Training,1.0996981999996933,0.05,true,banana,banana,occlusion,low,mask,partial viewing,few large,Training_Stimulus\fewlarge_partialViewing_low_banana1022.png,mask_img/000000002337.png,training,q,q,547.4753239999991
3,21,Male,Right,62,Training,1.4346892999965348,0.025,true,bird,bird,occlusion,low,mask,partial viewing,few large,Training_Stimulus\fewlarge_partialViewing_low_bird1073.png,mask_img/000000002774.png,training,p,p,549.993087099996
3,21,Male,Right,63,Training,1.292816799999855,0.05,true,bird,bird,occlusion,control,mask,partial viewing,many small,Training_Stimulus\manysmall_partialViewing_control_bird394.png,mask_img/000000004642.png,training,p,p,552.818331399998
3,21,Male,Right,64,Training,1.8076919000013731,0.05,false,person,cat,occlusion,low,mask,partial viewing,few large,Training_Stimulus\fewlarge_partialViewing_low_person587.png,mask_img/000000003483.png,training,e,u,555.9593190000014
3,21,Male,Right,65,Training,1.1782956999959424,0.025,false,person,bus,occlusion,high,mask,partial viewing,few large,Training_Stimulus\fewlarge_partialViewing_high_person189.png,mask_img/000000001997.png,training,w,u,558.5532238000014
3,21,Male,Right,66,Training,1.7986724000002141,0.1,false,bird,firehydrant,occlusion,low,mask,partial viewing,many small,Training_Stimulus\manysmall_partialViewing_low_bird394.png,mask_img/000000006481.png,training,r,p,561.4602593000018
3,21,Male,Right,67,Training,1.5524644999968586,0.025,false,banana,person,occlusion,high,mask,partial viewing,few large,Training_Stimulus\fewlarge_partialViewing_high_banana1022.png,mask_img/000000000690.png,training,u,q,564.1818002
3,21,Male,Right,68,Training,1.2335763000010047,0.05,false,bus,cat,occlusion,low,mask,partial viewing,many small,Training_Stimulus\manysmall_partialViewing_low_bus630.png,mask_img/000000006709.png,training,e,w,566.6710515000013
3,21,Male,Right,69,Training,2.458955199996126,0.025,false,banana,cat,occlusion,high,mask,partial viewing,many small,Training_Stimulus\manysmall_partialViewing_high_banana589.png,mask_img/000000005359.png,training,e,q,570.4080471999987
3,21,Male,Right,70,Training,1.3074253000013414,0.025,false,cat,bus,occlusion,low,mask,partial viewing,few large,Training_Stimulus\fewlarge_partialViewing_low_cat593.png,mask_img/000000003084.png,training,w,e,572.8950104999967
3,21,Male,Right,71,Training,1.5882129999954486,0.1,true,cat,cat,occlusion,high,mask,partial viewing,few large,Training_Stimulus\fewlarge_partialViewing_high_cat511.png,mask_img/000000001647.png,training,e,e,575.8508652000019
3,21,Male,Right,72,Training,1.672304300001997,0.1,true,person,person,occlusion,low,mask,partial viewing,many small,Training_Stimulus\manysmall_partialViewing_low_person587.png,mask_img/000000007179.png,training,u,u,578.630107799996
3,21,Male,Right,73,Training,1.4687902000005124,0.1,true,bus,bus,occlusion,control,mask,partial viewing,many small,Training_Stimulus\manysmall_partialViewing_control_bus630.png,mask_img/000000004936.png,training,w,w,581.3604336999997
3,21,Male,Right,74,Training,1.2970057999991695,0.1,true,firehydrant,firehydrant,occlusion,low,mask,partial viewing,few large,Training_Stimulus\fewlarge_partialViewing_low_firehydrant205.png,mask_img/000000003225.png,training,r,r,583.7882520999992
3,21,Male,Right,75,Training,2.961868400001549,0.1,false,person,tree,occlusion,high,mask,partial viewing,many small,Training_Stimulus\manysmall_partialViewing_high_person475.png,mask_img/000000006153.png,training,i,u,588.0068506000025
3,21,Male,Right,76,Training,2.7726164999985485,0.05,true,building,building,occlusion,low,mask,partial viewing,few large,Training_Stimulus\fewlarge_partialViewing_low_building71.png,mask_img/000000002822.png,training,o,o,592.2123309000017
3,21,Male,Right,77,Training,1.1599762000041665,0.05,true,banana,banana,occlusion,low,mask,partial viewing,many small,Training_Stimulus\manysmall_partialViewing_low_banana589.png,mask_img/000000006437.png,training,q,q,594.5740135000015
3,21,Male,Right,78,Training,1.8636606000000029,0.05,true,bird,bird,occlusion,control,mask,partial viewing,few large,Training_Stimulus\fewlarge_partialViewing_control_bird394.png,mask_img/000000000109.png,training,p,p,597.8726215999995
3,21,Male,Right,79,Training,1.3223261000021012,0.025,true,bird,bird,occlusion,control,mask,partial viewing,many small,Training_Stimulus\manysmall_partialViewing_control_bird394.png,mask_img/000000004642.png,training,p,p,600.6228465999957
3,21,Male,Right,80,Training,1.4312033999958658,0.1,true,cat,cat,occlusion,control,mask,partial viewing,many small,Training_Stimulus\manysmall_partialViewing_control_cat511.png,mask_img/000000005105.png,training,e,e,603.1135237999988
3,21,Male,Right,81,Training,1.1987203999960911,0.1,false,tree,firehydrant,occlusion,high,mask,partial viewing,many small,Training_Stimulus\manysmall_partialViewing_high_tree25.png,mask_img/000000006263.png,training,r,i,605.5548000999988
3,21,Male,Right,82,Training,1.5586769000001368,0.025,false,bird,person,occlusion,low,mask,partial viewing,many small,Training_Stimulus\manysmall_partialViewing_low_bird394.png,mask_img/000000006481.png,training,u,p,608.3416652000014
3,21,Male,Right,83,Training,2.8036298000006354,0.1,false,building,person,occlusion,high,mask,partial viewing,many small,Training_Stimulus\manysmall_partialViewing_high_building48.png,mask_img/000000005574.png,training,u,o,612.4713479999991
3,21,Male,Right,84,Training,2.5135989999980666,0.025,false,tree,banana,occlusion,low,mask,partial viewing,many small,Training_Stimulus\manysmall_partialViewing_low_tree25.png,mask_img/000000007325.png,training,q,i,616.3961340000023
3,21,Male,Right,85,Training,3.11171469999681,0.05,true,tree,tree,occlusion,high,mask,partial viewing,few large,Training_Stimulus\fewlarge_partialViewing_high_tree25.png,mask_img/000000002197.png,training,i,i,620.7868959999978
3,21,Male,Right,86,Training,1.6838998999955948,0.1,false,cat,tree,occlusion,high,mask,partial viewing,many small,Training_Stimulus\manysmall_partialViewing_high_cat511.png,mask_img/000000005862.png,training,i,e,623.9454848000023
3,21,Male,Right,87,Training,1.7477409000057378,0.025,true,person,person,occlusion,low,mask,partial viewing,many small,Training_Stimulus\manysmall_partialViewing_low_person587.png,mask_img/000000007179.png,training,u,u,627.1982560999968
3,21,Male,Right,88,Training,1.2108044999986305,0.025,true,bus,bus,occlusion,control,mask,partial viewing,few large,Training_Stimulus\fewlarge_partialViewing_control_bus630.png,mask_img/000000000394.png,training,w,w,629.7623007000002
3,21,Male,Right,89,Training,1.5514056000029086,0.05,true,building,building,occlusion,low,mask,partial viewing,many small,Training_Stimulus\manysmall_partialViewing_low_building24.png,mask_img/000000006489.png,training,o,o,632.6863546999957
3,21,Male,Right,90,Training,1.8346850000016275,0.025,true,building,building,occlusion,high,mask,partial viewing,many small,Training_Stimulus\manysmall_partialViewing_high_building48.png,mask_img/000000005574.png,training,o,o,635.5936236999987
3,21,Male,Right,91,Training,7.5517790999947465,0.1,false,firehydrant,tree,occlusion,high,mask,partial viewing,many small,Training_Stimulus\manysmall_partialViewing_high_firehydrant90.png,mask_img/000000006146.png,training,i,r,644.5187181000001
3,21,Male,Right,92,Training,2.0855907000004663,0.025,false,firehydrant,banana,occlusion,high,mask,partial viewing,many small,Training_Stimulus\manysmall_partialViewing_high_firehydrant90.png,mask_img/000000006146.png,training,q,r,648.0510045999981
3,21,Male,Right,93,Training,1.3823589999956312,0.1,true,firehydrant,firehydrant,occlusion,control,mask,partial viewing,many small,Training_Stimulus\manysmall_partialViewing_control_firehydrant154.png,mask_img/000000005131.png,training,r,r,650.7082972999997
3,21,Male,Right,94,Training,1.6989290999990772,0.05,false,tree,banana,occlusion,low,mask,partial viewing,many small,Training_Stimulus\manysmall_partialViewing_low_tree25.png,mask_img/000000007325.png,training,q,i,653.568125400001
3,21,Male,Right,95,Training,1.9951935999997659,0.1,true,tree,tree,occlusion,control,mask,partial viewing,few large,Training_Stimulus\fewlarge_partialViewing_control_tree17.png,mask_img/000000000626.png,training,i,i,657.0724308999997
3,21,Male,Right,96,Training,1.3053808999975445,0.025,true,person,person,occlusion,control,mask,partial viewing,few large,Training_Stimulus\fewlarge_partialViewing_control_person475.png,mask_img/000000000595.png,training,u,u,659.4951719000019
3,21,Male,Right,97,Training,2.323388699995121,0.05,true,bus,bus,occlusion,low,mask,partial viewing,few large,Training_Stimulus\fewlarge_partialViewing_low_bus630.png,mask_img/000000002892.png,training,w,w,663.1231095999974
3,21,Male,Right,98,Training,1.458871499999077,0.1,true,firehydrant,firehydrant,occlusion,high,mask,partial viewing,few large,Training_Stimulus\fewlarge_partialViewing_high_firehydrant90.png,mask_img/000000001810.png,training,r,r,665.8289279000019
3,21,Male,Right,99,Training,0.9595551999955205,0.05,true,firehydrant,firehydrant,occlusion,control,mask,partial viewing,few large,Training_Stimulus\fewlarge_partialViewing_control_firehydrant154.png,mask_img/000000000459.png,training,r,r,668.2743627000018
3,21,Male,Right,100,Training,1.3511692999963998,0.05,true,tree,tree,occlusion,control,mask,partial viewing,few large,Training_Stimulus\fewlarge_partialViewing_control_tree17.png,mask_img/000000000626.png,training,i,i,670.7762222000019
3,21,Male,Right,101,Training,1.3168136999956914,0.05,true,banana,banana,occlusion,high,mask,partial viewing,few large,Training_Stimulus\fewlarge_partialViewing_high_banana1022.png,mask_img/000000000690.png,training,q,q,673.5063633999962
3,21,Male,Right,102,Training,1.5431069999976899,0.025,true,tree,tree,occlusion,low,mask,partial viewing,few large,Training_Stimulus\fewlarge_partialViewing_low_tree17.png,mask_img/000000003694.png,training,i,i,676.4337202000024
3,21,Male,Right,1,Block 1,1.4370897999979206,0.05,true,firehydrant,firehydrant,occlusion,high,mask,partial viewing,many small,Stimulus\all_stim\occlusion\partialviewing\manysmall\high\manysmall_partialViewing_high_firehydrant5.png,mask_img/000000050496.png,experiment,r,r,697.4435333000001
3,21,Male,Right,2,Block 1,1.3710558000020683,0.025,true,banana,banana,occlusion,control,mask,partial viewing,many small,Stimulus\all_stim\occlusion\partialviewing\manysmall\control\manysmall_partialViewing_control_banana1.png,mask_img/000000033073.png,experiment,q,q,699.7229936000003
3,21,Male,Right,3,Block 1,1.982322199997725,0.025,true,bird,bird,occlusion,control,mask,partial viewing,few large,Stimulus\all_stim\occlusion\partialviewing\fewlarge\control\fewlarge_partialViewing_control_bird6.png,mask_img/000000002337.png,experiment,p,p,702.6036609000002
3,21,Male,Right,4,Block 1,2.018644600000698,0.05,false,cat,tree,occlusion,low,mask,partial viewing,many small,Stimulus\all_stim\occlusion\partialviewing\manysmall\low\manysmall_partialViewing_low_cat1.png,mask_img/000000059036.png,experiment,i,e,705.7641524999999
3,21,Male,Right,5,Block 1,1.2364391999944928,0.025,false,bird,building,occlusion,high,mask,partial viewing,many small,Stimulus\all_stim\occlusion\partialviewing\manysmall\high\manysmall_partialViewing_high_bird2.png,mask_img/000000044117.png,experiment,o,p,707.6756918999963
3,21,Male,Right,6,Block 1,1.025851499995042,0.1,true,bus,bus,occlusion,low,mask,partial viewing,few large,Stimulus\all_stim\occlusion\partialviewing\fewlarge\low\fewlarge_partialViewing_low_bus3.png,mask_img/000000025997.png,experiment,w,w,709.5392938000005
3,21,Male,Right,7,Block 1,1.5590377999978955,0.1,false,person,banana,occlusion,high,mask,partial viewing,many small,Stimulus\all_stim\occlusion\partialviewing\manysmall\high\manysmall_partialViewing_high_person7.png,mask_img/000000052562.png,experiment,q,u,711.7716443999961
3,21,Male,Right,8,Block 1,1.336875400003919,0.1,true,cat,cat,occlusion,low,mask,partial viewing,few large,Stimulus\all_stim\occlusion\partialviewing\fewlarge\low\fewlarge_partialViewing_low_cat2.png,mask_img/000000027371.png,experiment,e,e,713.9792089999974
3,21,Male,Right,9,Block 1,1.5028625999984797,0.1,true,bird,bird,occlusion,low,mask,partial viewing,few large,Stimulus\all_stim\occlusion\partialviewing\fewlarge\low\fewlarge_partialViewing_low_bird6.png,mask_img/000000024247.png,experiment,p,p,716.3315452999959
3,21,Male,Right,10,Block 1,1.8037144999980228,0.05,true,banana,banana,occlusion,high,mask,partial viewing,few large,Stimulus\all_stim\occlusion\partialviewing\fewlarge\high\fewlarge_partialViewing_high_banana9.png,mask_img/000000012999.png,experiment,q,q,719.2430359999998
3,21,Male,Right,11,Block 1,1.0340336000008392,0.025,false,person,tree,occlusion,control,mask,partial viewing,few large,Stimulus\all_stim\occlusion\partialviewing\fewlarge\control\fewlarge_partialViewing_control_person3.png,mask_img/000000008920.png,experiment,i,u,721.0037894999987
3,21,Male,Right,12,Block 1,1.1197506999960751,0.1,true,person,person,occlusion,high,mask,partial viewing,few large,Stimulus\all_stim\occlusion\partialviewing\fewlarge\high\fewlarge_partialViewing_high_person4.png,mask_img/000000020202.png,experiment,u,u,723.1392441999997
3,21,Male,Right,13,Block 1,1.530146600001899,0.05,false,person,firehydrant,occlusion,low,mask,partial viewing,few large,Stimulus\all_stim\occlusion\partialviewing\fewlarge\low\fewlarge_partialViewing_low_person8.png,mask_img/000000030611.png,experiment,r,u,725.7071164000008
3,21,Male,Right,14,Block 1,1.0536998999959906,0.05,true,banana,banana,occlusion,high,mask,partial viewing,few large,Stimulus\all_stim\occlusion\partialviewing\fewlarge\high\fewlarge_partialViewing_high_banana5.png,mask_img/000000012543.png,experiment,q,q,727.6838614000008
3,21,Male,Right,15,Block 1,1.7835265000030631,0.1,true,building,building,occlusion,high,mask,partial viewing,few large,Stimulus\all_stim\occlusion\partialviewing\fewlarge\high\fewlarge_partialViewing_high_building2.png,mask_img/000000014472.png,experiment,o,o,730.2109544999985
3,21,Male,Right,16,Block 1,2.1979370000044582,0.025,false,cat,bird,occlusion,low,mask,partial viewing,few large,Stimulus\all_stim\occlusion\partialviewing\fewlarge\low\fewlarge_partialViewing_low_cat3.png,mask_img/000000027556.png,experiment,p,e,733.3476984000008
3,21,Male,Right,17,Block 1,1.2441637000010815,0.1,true,bus,bus,occlusion,control,mask,partial viewing,many small,Stimulus\all_stim\occlusion\partialviewing\manysmall\control\manysmall_partialViewing_control_bus5.png,mask_img/000000037140.png,experiment,w,w,735.3637295000008
3,21,Male,Right,18,Block 1,1.6989510000057635,0.05,true,person,person,occlusion,control,mask,partial viewing,few large,Stimulus\all_stim\occlusion\partialviewing\fewlarge\control\fewlarge_partialViewing_control_person1.png,mask_img/000000008341.png,experiment,u,u,738.0507698000001
3,21,Male,Right,19,Block 1,2.133065900001384,0.025,false,bird,cat,occlusion,high,mask,partial viewing,many small,Stimulus\all_stim\occlusion\partialviewing\manysmall\high\manysmall_partialViewing_high_bird1.png,mask_img/000000043966.png,experiment,e,p,741.2830525000027
3,21,Male,Right,20,Block 1,1.649211700001615,0.025,true,building,building,occlusion,control,mask,partial viewing,few large,Stimulus\all_stim\occlusion\partialviewing\fewlarge\control\fewlarge_partialViewing_control_building10.png,mask_img/000000003225.png,experiment,o,o,743.611316399998
3,21,Male,Right,21,Block 1,0.9923015000022133,0.025,true,building,building,occlusion,control,mask,partial viewing,few large,Stimulus\all_stim\occlusion\partialviewing\fewlarge\control\fewlarge_partialViewing_control_building2.png,mask_img/000000003483.png,experiment,o,o,745.6432606000017
3,21,Male,Right,22,Block 1,2.025125400003162,0.025,false,bird,building,occlusion,high,mask,partial viewing,many small,Stimulus\all_stim\occlusion\partialviewing\manysmall\high\manysmall_partialViewing_high_bird8.png,mask_img/000000044831.png,experiment,o,p,748.7073739999978
3,21,Male,Right,23,Block 1,0.8018330999984755,0.05,true,building,building,occlusion,high,mask,partial viewing,few large,Stimulus\all_stim\occlusion\partialviewing\fewlarge\high\fewlarge_partialViewing_high_building6.png,mask_img/000000014774.png,experiment,o,o,750.6431757999962
3,21,Male,Right,24,Block 1,1.1610908000002382,0.025,true,tree,tree,occlusion,control,mask,partial viewing,many small,Stimulus\all_stim\occlusion\partialviewing\manysmall\control\manysmall_partialViewing_control_tree7.png,mask_img/000000041434.png,experiment,i,i,752.7714823999995
3,21,Male,Right,25,Block 1,0.8755748999974458,0.05,true,banana,banana,occlusion,control,mask,partial viewing,many small,Stimulus\all_stim\occlusion\partialviewing\manysmall\control\manysmall_partialViewing_control_banana9.png,mask_img/000000033955.png,experiment,q,q,754.5638122000018
3,21,Male,Right,26,Block 1,0.932868600000802,0.05,false,person,bus,occlusion,high,mask,partial viewing,many small,Stimulus\all_stim\occlusion\partialviewing\manysmall\high\manysmall_partialViewing_high_person10.png,mask_img/000000051453.png,experiment,w,u,756.3395450000025
3,21,Male,Right,27,Block 1,1.0780824000030407,0.05,true,person,person,occlusion,control,mask,partial viewing,many small,Stimulus\all_stim\occlusion\partialviewing\manysmall\control\manysmall_partialViewing_control_person4.png,mask_img/000000040042.png,experiment,u,u,758.1953291000027
3,21,Male,Right,28,Block 1,1.0070617999954266,0.025,false,cat,banana,occlusion,high,mask,partial viewing,few large,Stimulus\all_stim\occlusion\partialviewing\fewlarge\high\fewlarge_partialViewing_high_cat1.png,mask_img/000000017183.png,experiment,q,e,760.2590369999962
3,21,Male,Right,29,Block 1,1.1396907000016654,0.025,true,building,building,occlusion,low,mask,partial viewing,few large,Stimulus\all_stim\occlusion\partialviewing\fewlarge\low\fewlarge_partialViewing_low_building5.png,mask_img/000000025034.png,experiment,o,o,762.0827759000022
3,21,Male,Right,30,Block 1,1.693011999996088,0.05,true,bird,bird,occlusion,control,mask,partial viewing,many small,Stimulus\all_stim\occlusion\partialviewing\manysmall\control\manysmall_partialViewing_control_bird10.png,mask_img/000000034304.png,experiment,p,p,764.8989526000005
3,21,Male,Right,31,Block 1,0.8790535999942222,0.025,false,tree,bird,occlusion,high,mask,partial viewing,many small,Stimulus\all_stim\occlusion\partialviewing\manysmall\high\manysmall_partialViewing_high_tree10.png,mask_img/000000052818.png,experiment,p,i,766.4908281000025
3,21,Male,Right,32,Block 1,1.3000812000027508,0.1,true,bus,bus,occlusion,control,mask,partial viewing,few large,Stimulus\all_stim\occlusion\partialviewing\fewlarge\control\fewlarge_partialViewing_control_bus4.png,mask_img/000000005574.png,experiment,w,w,768.5476703000022
3,21,Male,Right,33,Block 1,1.5730363999973633,0.025,true,bird,bird,occlusion,low,mask,partial viewing,many small,Stimulus\all_stim\occlusion\partialviewing\manysmall\low\manysmall_partialViewing_low_bird8.png,mask_img/000000056137.png,experiment,p,p,771.2111154000013
3,21,Male,Right,34,Block 1,0.9138289999973495,0.1,false,cat,banana,occlusion,low,mask,partial viewing,few large,Stimulus\all_stim\occlusion\partialviewing\fewlarge\low\fewlarge_partialViewing_low_cat4.png,mask_img/000000027675.png,experiment,q,e,773.1231111000016
3,21,Male,Right,35,Block 1,1.7658162000006996,0.025,true,building,building,occlusion,control,mask,partial viewing,many small,Stimulus\all_stim\occlusion\partialviewing\manysmall\control\manysmall_partialViewing_control_building2.png,mask_img/000000035864.png,experiment,o,o,775.979145199999
3,21,Male,Right,36,Block 1,1.3661993000059738,0.025,true,firehydrant,firehydrant,occlusion,low,mask,partial viewing,few large,Stimulus\all_stim\occlusion\partialviewing\fewlarge\low\fewlarge_partialViewing_low_firehydrant9.png,mask_img/000000029056.png,experiment,r,r,778.1791352
3,21,Male,Right,37,Block 1,2.206875099996978,0.05,false,tree,firehydrant,occlusion,high,mask,partial viewing,many small,Stimulus\all_stim\occlusion\partialviewing\manysmall\high\manysmall_partialViewing_high_tree3.png,mask_img/000000052936.png,experiment,r,i,781.2272417999993
3,21,Male,Right,38,Block 1,1.4282765000025393,0.1,true,building,building,occlusion,low,mask,partial viewing,few large,Stimulus\all_stim\occlusion\partialviewing\fewlarge\low\fewlarge_partialViewing_low_building5.png,mask_img/000000025034.png,experiment,o,o,783.7790077999962
3,21,Male,Right,39,Block 1,1.6460967999955756,0.1,true,bus,bus,occlusion,control,mask,partial viewing,few large,Stimulus\all_stim\occlusion\partialviewing\fewlarge\control\fewlarge_partialViewing_control_bus2.png,mask_img/000000005359.png,experiment,w,w,786.4995777000004
3,21,Male,Right,40,Block 1,1.5081776000006357,0.025,false,tree,bus,occlusion,low,mask,partial viewing,many small,Stimulus\all_stim\occlusion\partialviewing\manysmall\low\manysmall_partialViewing_low_tree10.png,mask_img/000000062716.png,experiment,w,i,789.115091300002
3,21,Male,Right,41,Block 1,1.5548298000067007,0.05,false,firehydrant,building,occlusion,high,mask,partial viewing,few large,Stimulus\all_stim\occlusion\partialviewing\fewlarge\high\fewlarge_partialViewing_high_firehydrant4.png,mask_img/000000018882.png,experiment,o,r,791.5389485999985
3,21,Male,Right,42,Block 1,1.3451639999984764,0.1,true,bird,bird,occlusion,low,mask,partial viewing,many small,Stimulus\all_stim\occlusion\partialviewing\manysmall\low\manysmall_partialViewing_low_bird6.png,mask_img/000000056007.png,experiment,p,p,793.7313645999966
3,21,Male,Right,43,Block 1,1.6946009999956004,0.025,true,bird,bird,occlusion,low,mask,partial viewing,few large,Stimulus\all_stim\occlusion\partialviewing\fewlarge\low\fewlarge_partialViewing_low_bird9.png,mask_img/000000024530.png,experiment,p,p,796.2751929000005
3,21,Male,Right,44,Block 1,1.587095800001407,0.05,false,tree,person,occlusion,control,mask,partial viewing,few large,Stimulus\all_stim\occlusion\partialviewing\fewlarge\control\fewlarge_partialViewing_control_tree3.png,mask_img/000000010566.png,experiment,u,i,798.5395505999986
3,21,Male,Right,45,Block 1,3.6091591000003973,0.025,false,person,building,occlusion,high,mask,partial viewing,many small,Stimulus\all_stim\occlusion\partialviewing\manysmall\high\manysmall_partialViewing_high_person3.png,mask_img/000000051880.png,experiment,o,u,802.9316590000017
3,21,Male,Right,46,Block 1,1.0831971999941743,0.025,true,banana,banana,occlusion,control,mask,partial viewing,few large,Stimulus\all_stim\occlusion\partialviewing\fewlarge\control\fewlarge_partialViewing_control_banana1.png,mask_img/000000000042.png,experiment,q,q,804.8271813000028
3,21,Male,Right,47,Block 1,2.3513266000009025,0.1,true,tree,tree,occlusion,control,mask,partial viewing,few large,Stimulus\all_stim\occlusion\partialviewing\fewlarge\control\fewlarge_partialViewing_control_tree3.png,mask_img/000000010566.png,experiment,i,i,807.9312680000003
3,21,Male,Right,48,Block 1,3.0065028999961214,0.05,true,cat,cat,occlusion,control,mask,partial viewing,many small,Stimulus\all_stim\occlusion\partialviewing\manysmall\control\manysmall_partialViewing_control_cat7.png,mask_img/000000038798.png,experiment,e,e,812.0114135999975
3,21,Male,Right,49,Block 1,1.5586191000038525,0.1,true,bird,bird,occlusion,low,mask,partial viewing,many small,Stimulus\all_stim\occlusion\partialviewing\manysmall\low\manysmall_partialViewing_low_bird5.png,mask_img/000000055942.png,experiment,p,p,814.3552256999974
3,21,Male,Right,50,Block 1,1.7724700999970082,0.05,true,person,person,occlusion,high,mask,partial viewing,few large,Stimulus\all_stim\occlusion\partialviewing\fewlarge\high\fewlarge_partialViewing_high_person9.png,mask_img/000000021003.png,experiment,u,u,817.1391653000028
3,21,Male,Right,51,Block 1,1.3480060000001686,0.025,true,firehydrant,firehydrant,occlusion,control,mask,partial viewing,few large,Stimulus\all_stim\occlusion\partialviewing\fewlarge\control\fewlarge_partialViewing_control_firehydrant3.png,mask_img/000000007946.png,experiment,r,r,819.595765500002
3,21,Male,Right,52,Block 1,1.8473557999968762,0.025,false,banana,tree,occlusion,high,mask,partial viewing,many small,Stimulus\all_stim\occlusion\partialviewing\manysmall\high\manysmall_partialViewing_high_banana2.png,mask_img/000000042408.png,experiment,i,q,822.3391896999965
3,21,Male,Right,53,Block 1,1.7048386000024038,0.05,false,bird,person,occlusion,high,mask,partial viewing,many small,Stimulus\all_stim\occlusion\partialviewing\manysmall\high\manysmall_partialViewing_high_bird4.png,mask_img/000000044136.png,experiment,u,p,824.8113243999978
3,21,Male,Right,54,Block 1,1.1212788999982877,0.05,true,firehydrant,firehydrant,occlusion,low,mask,partial viewing,few large,Stimulus\all_stim\occlusion\partialviewing\fewlarge\low\fewlarge_partialViewing_low_firehydrant6.png,mask_img/000000028842.png,experiment,r,r,826.779031500002
3,21,Male,Right,55,Block 1,1.034811700003047,0.1,true,building,building,occlusion,high,mask,partial viewing,few large,Stimulus\all_stim\occlusion\partialviewing\fewlarge\high\fewlarge_partialViewing_high_building10.png,mask_img/000000014428.png,experiment,o,o,828.8196609000006
3,21,Male,Right,56,Block 1,1.0555269999968004,0.05,true,bird,bird,occlusion,high,mask,partial viewing,few large,Stimulus\all_stim\occlusion\partialviewing\fewlarge\high\fewlarge_partialViewing_high_bird7.png,mask_img/000000013949.png,experiment,p,p,830.8513775999963
3,21,Male,Right,57,Block 1,1.7468863999965834,0.025,true,tree,tree,occlusion,high,mask,partial viewing,few large,Stimulus\all_stim\occlusion\partialviewing\fewlarge\high\fewlarge_partialViewing_high_tree4.png,mask_img/000000021981.png,experiment,i,i,833.355233000002
3,21,Male,Right,58,Block 1,2.0553685999984737,0.05,false,firehydrant,cat,occlusion,high,mask,partial viewing,many small,Stimulus\all_stim\occlusion\partialviewing\manysmall\high\manysmall_partialViewing_high_firehydrant7.png,mask_img/000000050790.png,experiment,e,r,836.4909956999982
3,21,Male,Right,59,Block 1,1.6065082999994047,0.025,true,bird,bird,occlusion,low,mask,partial viewing,few large,Stimulus\all_stim\occlusion\partialviewing\fewlarge\low\fewlarge_partialViewing_low_bird10.png,mask_img/000000023988.png,experiment,p,p,838.7951663999993
3,21,Male,Right,60,Block 1,1.8889449999987846,0.05,true,bus,bus,occlusion,control,mask,partial viewing,few large,Stimulus\all_stim\occlusion\partialviewing\fewlarge\control\fewlarge_partialViewing_control_bus6.png,mask_img/000000005862.png,experiment,w,w,841.3950355999987
3,21,Male,Right,61,Block 1,1.1366884000017308,0.1,true,bird,bird,occlusion,high,mask,partial viewing,few large,Stimulus\all_stim\occlusion\partialviewing\fewlarge\high\fewlarge_partialViewing_high_bird2.png,mask_img/000000013169.png,experiment,p,p,843.1954995999986
3,21,Male,Right,62,Block 1,0.7839466000004904,0.1,true,bird,bird,occlusion,control,mask,partial viewing,many small,Stimulus\all_stim\occlusion\partialviewing\manysmall\control\manysmall_partialViewing_control_bird9.png,mask_img/000000035514.png,experiment,p,p,845.0351063999988
3,21,Male,Right,63,Block 1,1.055128899999545,0.025,true,building,building,occlusion,high,mask,partial viewing,few large,Stimulus\all_stim\occlusion\partialviewing\fewlarge\high\fewlarge_partialViewing_high_building3.png,mask_img/000000014567.png,experiment,o,o,846.8350735999993
3,21,Male,Right,64,Block 1,1.4134390999970492,0.1,true,tree,tree,occlusion,low,mask,partial viewing,many small,Stimulus\all_stim\occlusion\partialviewing\manysmall\low\manysmall_partialViewing_low_tree4.png,mask_img/000000063337.png,experiment,i,i,849.1955594999963
3,21,Male,Right,65,Block 1,0.8299552999960724,0.025,true,building,building,occlusion,high,mask,partial viewing,many small,Stimulus\all_stim\occlusion\partialviewing\manysmall\high\manysmall_partialViewing_high_building8.png,mask_img/000000046245.png,experiment,o,o,851.0356207000004
3,21,Male,Right,66,Block 1,1.0463558999981615,0.1,false,banana,bird,occlusion,high,mask,partial viewing,many small,Stimulus\all_stim\occlusion\partialviewing\manysmall\high\manysmall_partialViewing_high_banana3.png,mask_img/000000042476.png,experiment,p,q,853.0031814999966
3,21,Male,Right,67,Block 1,1.0971511999960057,0.05,false,bird,tree,occlusion,low,mask,partial viewing,many small,Stimulus\all_stim\occlusion\partialviewing\manysmall\low\manysmall_partialViewing_low_bird8.png,mask_img/000000056137.png,experiment,i,p,855.1316531999983
3,21,Male,Right,68,Block 1,0.9944141000014497,0.1,true,bird,bird,occlusion,control,mask,partial viewing,few large,Stimulus\all_stim\occlusion\partialviewing\fewlarge\control\fewlarge_partialViewing_control_bird1.png,mask_img/000000000873.png,experiment,p,p,856.9470316000006
3,21,Male,Right,69,Block 1,2.139059900000575,0.1,false,tree,building,occlusion,control,mask,partial viewing,many small,Stimulus\all_stim\occlusion\partialviewing\manysmall\control\manysmall_partialViewing_control_tree10.png,mask_img/000000040948.png,experiment,o,i,860.1310489000025
3,21,Male,Right,70,Block 1,1.4319159000006039,0.05,false,person,cat,occlusion,high,mask,partial viewing,many small,Stimulus\all_stim\occlusion\partialviewing\manysmall\high\manysmall_partialViewing_high_person3.png,mask_img/000000051880.png,experiment,e,u,862.5152796999973
3,21,Male,Right,71,Block 1,1.9573645999989822,0.05,false,banana,tree,occlusion,low,mask,partial viewing,many small,Stimulus\all_stim\occlusion\partialviewing\manysmall\low\manysmall_partialViewing_low_banana6.png,mask_img/000000055460.png,experiment,i,q,865.2198035999972
3,21,Male,Right,72,Block 1,0.7595432000016444,0.1,true,tree,tree,occlusion,low,mask,partial viewing,few large,Stimulus\all_stim\occlusion\partialviewing\fewlarge\low\fewlarge_partialViewing_low_tree4.png,mask_img/000000032364.png,experiment,i,i,866.9232472000003
3,21,Male,Right,73,Block 1,1.304925500000536,0.05,true,bus,bus,occlusion,control,mask,partial viewing,few large,Stimulus\all_stim\occlusion\partialviewing\fewlarge\control\fewlarge_partialViewing_control_bus2.png,mask_img/000000005359.png,experiment,w,w,869.0590107000025
3,21,Male,Right,74,Block 1,2.8877148000028683,0.025,false,cat,bus,occlusion,high,mask,partial viewing,few large,Stimulus\all_stim\occlusion\partialviewing\fewlarge\high\fewlarge_partialViewing_high_cat5.png,mask_img/000000017409.png,experiment,w,e,872.7154355000021
3,21,Male,Right,75,Block 1,1.300624899995455,0.05,true,person,person,occlusion,control,mask,partial viewing,few large,Stimulus\all_stim\occlusion\partialviewing\fewlarge\control\fewlarge_partialViewing_control_person4.png,mask_img/000000009178.png,experiment,u,u,874.9560548000009
3,21,Male,Right,76,Block 1,1.6621700999967288,0.1,true,cat,cat,occlusion,low,mask,partial viewing,few large,Stimulus\all_stim\occlusion\partialviewing\fewlarge\low\fewlarge_partialViewing_low_cat5.png,mask_img/000000027704.png,experiment,e,e,877.4589753999971
3,21,Male,Right,77,Block 1,1.535229300003266,0.025,true,person,person,occlusion,high,mask,partial viewing,few large,Stimulus\all_stim\occlusion\partialviewing\fewlarge\high\fewlarge_partialViewing_high_person10.png,mask_img/000000019927.png,experiment,u,u,880.0511620999969
3,21,Male,Right,78,Block 1,1.8607688000047347,0.05,false,cat,person,occlusion,low,mask,partial viewing,many small,Stimulus\all_stim\occlusion\partialviewing\manysmall\low\manysmall_partialViewing_low_cat9.png,mask_img/000000060387.png,experiment,u,e,882.9232168000017
3,21,Male,Right,79,Block 1,2.174746499993489,0.025,true,building,building,occlusion,control,mask,partial viewing,few large,Stimulus\all_stim\occlusion\partialviewing\fewlarge\control\fewlarge_partialViewing_control_building8.png,mask_img/000000005105.png,experiment,o,o,886.0034476000001
3,21,Male,Right,80,Block 1,1.621095599999535,0.1,true,firehydrant,firehydrant,occlusion,control,mask,partial viewing,few large,Stimulus\all_stim\occlusion\partialviewing\fewlarge\control\fewlarge_partialViewing_control_firehydrant10.png,mask_img/000000007758.png,experiment,r,r,888.3074224000011
3,21,Male,Right,81,Block 1,1.7928651000038371,0.1,true,cat,cat,occlusion,low,mask,partial viewing,many small,Stimulus\all_stim\occlusion\partialviewing\manysmall\low\manysmall_partialViewing_low_cat2.png,mask_img/000000059201.png,experiment,e,e,890.7632329999979
3,21,Male,Right,82,Block 1,0.9739867000025697,0.1,true,building,building,occlusion,low,mask,partial viewing,many small,Stimulus\all_stim\occlusion\partialviewing\manysmall\low\manysmall_partialViewing_low_building10.png,mask_img/000000057068.png,experiment,o,o,892.5552889999963
3,21,Male,Right,83,Block 1,1.080471100001887,0.1,true,building,building,occlusion,high,mask,partial viewing,many small,Stimulus\all_stim\occlusion\partialviewing\manysmall\high\manysmall_partialViewing_high_building8.png,mask_img/000000046245.png,experiment,o,o,894.7067056000014
3,21,Male,Right,84,Block 1,0.8009887000007438,0.025,true,building,building,occlusion,control,mask,partial viewing,many small,Stimulus\all_stim\occlusion\partialviewing\manysmall\control\manysmall_partialViewing_control_building10.png,mask_img/000000035857.png,experiment,o,o,896.2106056999983
3,21,Male,Right,85,Block 1,1.6613051000022097,0.05,false,banana,bus,occlusion,high,mask,partial viewing,few large,Stimulus\all_stim\occlusion\partialviewing\fewlarge\high\fewlarge_partialViewing_high_banana1.png,mask_img/000000011754.png,experiment,w,q,898.9306806999957
3,21,Male,Right,86,Block 1,5.306351300001552,0.025,false,cat,bird,occlusion,control,mask,partial viewing,many small,Stimulus\all_stim\occlusion\partialviewing\manysmall\control\manysmall_partialViewing_control_cat9.png,mask_img/000000038862.png,experiment,p,e,905.0188280000002
3,21,Male,Right,87,Block 1,1.5402936999962549,0.1,true,bus,bus,occlusion,low,mask,partial viewing,few large,Stimulus\all_stim\occlusion\partialviewing\fewlarge\low\fewlarge_partialViewing_low_bus1.png,mask_img/000000025820.png,experiment,w,w,907.3868606999968
3,21,Male,Right,88,Block 1,1.7053268999952707,0.05,true,cat,cat,occlusion,low,mask,partial viewing,many small,Stimulus\all_stim\occlusion\partialviewing\manysmall\low\manysmall_partialViewing_low_cat6.png,mask_img/000000059918.png,experiment,e,e,909.9471336999995
3,21,Male,Right,89,Block 1,1.3549137000009068,0.05,true,firehydrant,firehydrant,occlusion,control,mask,partial viewing,many small,Stimulus\all_stim\occlusion\partialviewing\manysmall\control\manysmall_partialViewing_control_firehydrant3.png,mask_img/000000039113.png,experiment,r,r,912.3792246000012
3,21,Male,Right,90,Block 1,0.856869999995979,0.1,true,bird,bird,occlusion,high,mask,partial viewing,few large,Stimulus\all_stim\occlusion\partialviewing\fewlarge\high\fewlarge_partialViewing_high_bird5.png,mask_img/000000013914.png,experiment,p,p,914.1150640999986
3,21,Male,Right,91,Block 1,0.7596753999969224,0.05,true,bird,bird,occlusion,control,mask,partial viewing,many small,Stimulus\all_stim\occlusion\partialviewing\manysmall\control\manysmall_partialViewing_control_bird5.png,mask_img/000000034930.png,experiment,p,p,915.7229653999966
3,21,Male,Right,92,Block 1,2.9325301999997464,0.05,true,building,building,occlusion,low,mask,partial viewing,many small,Stimulus\all_stim\occlusion\partialviewing\manysmall\low\manysmall_partialViewing_low_building1.png,mask_img/000000056716.png,experiment,o,o,919.3873783000017
3,21,Male,Right,93,Block 1,1.2064002999977674,0.025,true,banana,banana,occlusion,high,mask,partial viewing,few large,Stimulus\all_stim\occlusion\partialviewing\fewlarge\high\fewlarge_partialViewing_high_banana5.png,mask_img/000000012543.png,experiment,q,q,921.2591114000024
3,21,Male,Right,94,Block 1,1.853020300004573,0.1,false,person,tree,occlusion,high,mask,partial viewing,few large,Stimulus\all_stim\occlusion\partialviewing\fewlarge\high\fewlarge_partialViewing_high_person1.png,mask_img/000000019759.png,experiment,i,u,924.1314493999962
3,21,Male,Right,95,Block 1,2.565265699995507,0.05,true,bird,bird,occlusion,high,mask,partial viewing,many small,Stimulus\all_stim\occlusion\partialviewing\manysmall\high\manysmall_partialViewing_high_bird5.png,mask_img/000000044437.png,experiment,p,p,927.5790311000019
3,21,Male,Right,96,Block 1,2.6651769999953103,0.025,true,tree,tree,occlusion,low,mask,partial viewing,many small,Stimulus\all_stim\occlusion\partialviewing\manysmall\low\manysmall_partialViewing_low_tree2.png,mask_img/000000062875.png,experiment,i,i,931.1152942999979
3,21,Male,Right,97,Block 1,2.5391287000020384,0.1,false,person,banana,occlusion,high,mask,partial viewing,many small,Stimulus\all_stim\occlusion\partialviewing\manysmall\high\manysmall_partialViewing_high_person1.png,mask_img/000000051310.png,experiment,q,u,934.8031276999973
3,21,Male,Right,98,Block 1,2.1031277000001865,0.025,false,banana,firehydrant,occlusion,high,mask,partial viewing,few large,Stimulus\all_stim\occlusion\partialviewing\fewlarge\high\fewlarge_partialViewing_high_banana9.png,mask_img/000000012999.png,experiment,r,q,937.6273366000023
3,21,Male,Right,99,Block 1,1.3082731000031345,0.025,true,tree,tree,occlusion,control,mask,partial viewing,few large,Stimulus\all_stim\occlusion\partialviewing\fewlarge\control\fewlarge_partialViewing_control_tree6.png,mask_img/000000011328.png,experiment,i,i,939.8031858999966
3,21,Male,Right,100,Block 1,2.145963399998436,0.1,false,firehydrant,person,occlusion,high,mask,partial viewing,few large,Stimulus\all_stim\occlusion\partialviewing\fewlarge\high\fewlarge_partialViewing_high_firehydrant1.png,mask_img/000000017944.png,experiment,u,r,942.7631380000021
3,21,Male,Right,101,Block 1,0.8159986000027857,0.1,true,bird,bird,occlusion,control,mask,partial viewing,many small,Stimulus\all_stim\occlusion\partialviewing\manysmall\control\manysmall_partialViewing_control_bird5.png,mask_img/000000034930.png,experiment,p,p,944.5713954000021
3,21,Male,Right,102,Block 1,0.8495039999979781,0.025,true,building,building,occlusion,low,mask,partial viewing,many small,Stimulus\all_stim\occlusion\partialviewing\manysmall\low\manysmall_partialViewing_low_building1.png,mask_img/000000056716.png,experiment,o,o,946.1788199000002
3,21,Male,Right,103,Block 1,0.8998491999955149,0.025,true,tree,tree,occlusion,control,mask,partial viewing,many small,Stimulus\all_stim\occlusion\partialviewing\manysmall\control\manysmall_partialViewing_control_tree5.png,mask_img/000000041174.png,experiment,i,i,948.1627288000018
3,21,Male,Right,104,Block 1,1.7610605000008945,0.025,false,bus,person,occlusion,high,mask,partial viewing,many small,Stimulus\all_stim\occlusion\partialviewing\manysmall\high\manysmall_partialViewing_high_bus9.png,mask_img/000000048268.png,experiment,u,w,950.8508365000016
3,21,Male,Right,105,Block 1,0.8938467000043602,0.05,true,bird,bird,occlusion,low,mask,partial viewing,many small,Stimulus\all_stim\occlusion\partialviewing\manysmall\low\manysmall_partialViewing_low_bird9.png,mask_img/000000056641.png,experiment,p,p,952.563201799996
3,21,Male,Right,106,Block 1,1.6751720000029309,0.05,true,banana,banana,occlusion,control,mask,partial viewing,few large,Stimulus\all_stim\occlusion\partialviewing\fewlarge\control\fewlarge_partialViewing_control_banana5.png,mask_img/000000000459.png,experiment,q,q,955.0189439000023
3,21,Male,Right,107,Block 1,0.8698297000009916,0.025,true,bus,bus,occlusion,high,mask,partial viewing,many small,Stimulus\all_stim\occlusion\partialviewing\manysmall\high\manysmall_partialViewing_high_bus6.png,mask_img/000000047407.png,experiment,w,w,956.9473131999985
3,21,Male,Right,108,Block 1,0.7414523999977973,0.025,true,banana,banana,occlusion,control,mask,partial viewing,many small,Stimulus\all_stim\occlusion\partialviewing\manysmall\control\manysmall_partialViewing_control_banana4.png,mask_img/000000033667.png,experiment,q,q,958.3947248999975
3,21,Male,Right,109,Block 1,1.201548199998797,0.05,true,firehydrant,firehydrant,occlusion,control,mask,partial viewing,many small,Stimulus\all_stim\occlusion\partialviewing\manysmall\control\manysmall_partialViewing_control_firehydrant6.png,mask_img/000000039406.png,experiment,r,r,960.4030863000007
3,21,Male,Right,110,Block 1,1.5343060999948648,0.025,true,bus,bus,occlusion,high,mask,partial viewing,few large,Stimulus\all_stim\occlusion\partialviewing\fewlarge\high\fewlarge_partialViewing_high_bus8.png,mask_img/000000016715.png,experiment,w,w,962.5868876000022
3,21,Male,Right,111,Block 1,1.6064121000017622,0.05,true,bird,bird,occlusion,control,mask,partial viewing,few large,Stimulus\all_stim\occlusion\partialviewing\fewlarge\control\fewlarge_partialViewing_control_bird9.png,mask_img/000000002892.png,experiment,p,p,965.3227571000025
3,21,Male,Right,112,Block 1,1.3565187000058359,0.1,true,person,person,occlusion,low,mask,partial viewing,few large,Stimulus\all_stim\occlusion\partialviewing\fewlarge\low\fewlarge_partialViewing_low_person2.png,mask_img/000000029274.png,experiment,u,u,967.403040600002
3,21,Male,Right,113,Block 1,1.428214500003378,0.025,true,tree,tree,occlusion,low,mask,partial viewing,few large,Stimulus\all_stim\occlusion\partialviewing\fewlarge\low\fewlarge_partialViewing_low_tree1.png,mask_img/000000031053.png,experiment,i,i,969.6109109999961
3,21,Male,Right,114,Block 1,0.9936807999984012,0.05,true,banana,banana,occlusion,control,mask,partial viewing,few large,Stimulus\all_stim\occlusion\partialviewing\fewlarge\control\fewlarge_partialViewing_control_banana10.png,mask_img/000000000109.png,experiment,q,q,971.3066208000018
3,21,Male,Right,115,Block 1,0.7698146999973687,0.025,true,banana,banana,occlusion,control,mask,partial viewing,few large,Stimulus\all_stim\occlusion\partialviewing\fewlarge\control\fewlarge_partialViewing_control_banana6.png,mask_img/000000000595.png,experiment,q,q,973.1948416000014
3,21,Male,Right,116,Block 1,1.596255900003598,0.025,true,banana,banana,occlusion,control,mask,partial viewing,few large,Stimulus\all_stim\occlusion\partialviewing\fewlarge\control\fewlarge_partialViewing_control_banana10.png,mask_img/000000000109.png,experiment,q,q,975.5387925999967
3,21,Male,Right,117,Block 1,1.3566104999990785,0.025,true,firehydrant,firehydrant,occlusion,control,mask,partial viewing,few large,Stimulus\all_stim\occlusion\partialviewing\fewlarge\control\fewlarge_partialViewing_control_firehydrant8.png,mask_img/000000008193.png,experiment,r,r,977.9553652999966
3,21,Male,Right,118,Block 1,1.1594836000003852,0.025,true,bird,bird,occlusion,control,mask,partial viewing,few large,Stimulus\all_stim\occlusion\partialviewing\fewlarge\control\fewlarge_partialViewing_control_bird8.png,mask_img/000000002822.png,experiment,p,p,979.7949125000014
3,21,Male,Right,119,Block 1,1.3175583999982337,0.025,false,bus,building,occlusion,low,mask,partial viewing,many small,Stimulus\all_stim\occlusion\partialviewing\manysmall\low\manysmall_partialViewing_low_bus9.png,mask_img/000000058910.png,experiment,o,w,981.8353132999982
3,21,Male,Right,120,Block 1,1.32310509999661,0.025,true,bus,bus,occlusion,control,mask,partial viewing,many small,Stimulus\all_stim\occlusion\partialviewing\manysmall\control\manysmall_partialViewing_control_bus7.png,mask_img/000000037339.png,experiment,w,w,984.0352784999995
3,21,Male,Right,121,Block 1,0.8385676999969292,0.1,true,banana,banana,occlusion,high,mask,partial viewing,few large,Stimulus\all_stim\occlusion\partialviewing\fewlarge\high\fewlarge_partialViewing_high_banana6.png,mask_img/000000012548.png,experiment,q,q,985.5312351999964
3,21,Male,Right,122,Block 1,1.4773916000049212,0.05,true,firehydrant,firehydrant,occlusion,high,mask,partial viewing,few large,Stimulus\all_stim\occlusion\partialviewing\fewlarge\high\fewlarge_partialViewing_high_firehydrant5.png,mask_img/000000018982.png,experiment,r,r,988.1239093999975
3,21,Male,Right,123,Block 1,3.0724211999986437,0.1,false,tree,person,occlusion,high,mask,partial viewing,few large,Stimulus\all_stim\occlusion\partialviewing\fewlarge\high\fewlarge_partialViewing_high_tree7.png,mask_img/000000022256.png,experiment,u,i,991.915602299996
3,21,Male,Right,124,Block 1,1.5227161000002525,0.025,false,person,banana,occlusion,high,mask,partial viewing,few large,Stimulus\all_stim\occlusion\partialviewing\fewlarge\high\fewlarge_partialViewing_high_person1.png,mask_img/000000019759.png,experiment,q,u,994.4350505999973
3,21,Male,Right,125,Block 1,1.1856031000061193,0.025,true,bus,bus,occlusion,low,mask,partial viewing,few large,Stimulus\all_stim\occlusion\partialviewing\fewlarge\low\fewlarge_partialViewing_low_bus7.png,mask_img/000000026720.png,experiment,w,w,996.2995783000006
3,21,Male,Right,126,Block 1,1.0135966000016197,0.025,true,banana,banana,occlusion,high,mask,partial viewing,few large,Stimulus\all_stim\occlusion\partialviewing\fewlarge\high\fewlarge_partialViewing_high_banana8.png,mask_img/000000012733.png,experiment,q,q,998.0037534000003
3,21,Male,Right,127,Block 1,0.8463670999990427,0.025,false,firehydrant,banana,occlusion,high,mask,partial viewing,many small,Stimulus\all_stim\occlusion\partialviewing\manysmall\high\manysmall_partialViewing_high_firehydrant1.png,mask_img/000000049987.png,experiment,q,r,999.6426206999968
3,21,Male,Right,128,Block 1,1.5286264000023948,0.1,true,tree,tree,occlusion,high,mask,partial viewing,few large,Stimulus\all_stim\occlusion\partialviewing\fewlarge\high\fewlarge_partialViewing_high_tree4.png,mask_img/000000021981.png,experiment,i,i,1001.820526800002
3,21,Male,Right,129,Block 1,1.0973199000000022,0.05,true,tree,tree,occlusion,low,mask,partial viewing,many small,Stimulus\all_stim\occlusion\partialviewing\manysmall\low\manysmall_partialViewing_low_tree10.png,mask_img/000000062716.png,experiment,i,i,1003.6269792999956
3,21,Male,Right,130,Block 1,0.875286700000288,0.05,false,banana,tree,occlusion,high,mask,partial viewing,many small,Stimulus\all_stim\occlusion\partialviewing\manysmall\high\manysmall_partialViewing_high_banana10.png,mask_img/000000042196.png,experiment,i,q,1005.5467903000026
3,21,Male,Right,131,Block 1,1.1877450999963912,0.025,true,bird,bird,occlusion,high,mask,partial viewing,few large,Stimulus\all_stim\occlusion\partialviewing\fewlarge\high\fewlarge_partialViewing_high_bird7.png,mask_img/000000013949.png,experiment,p,p,1007.8111267999993
3,21,Male,Right,132,Block 1,2.960813899997447,0.1,false,banana,tree,occlusion,low,mask,partial viewing,many small,Stimulus\all_stim\occlusion\partialviewing\manysmall\low\manysmall_partialViewing_low_banana9.png,mask_img/000000055652.png,experiment,i,q,1011.4911820999987
3,21,Male,Right,133,Block 1,1.0651320999968448,0.1,true,bus,bus,occlusion,low,mask,partial viewing,many small,Stimulus\all_stim\occlusion\partialviewing\manysmall\low\manysmall_partialViewing_low_bus4.png,mask_img/000000058701.png,experiment,w,w,1013.675874499997
3,21,Male,Right,134,Block 1,1.5774824999971315,0.1,false,cat,bird,occlusion,low,mask,partial viewing,few large,Stimulus\all_stim\occlusion\partialviewing\fewlarge\low\fewlarge_partialViewing_low_cat8.png,mask_img/000000028171.png,experiment,p,e,1016.0034050999966
3,21,Male,Right,135,Block 1,1.7272628000064287,0.025,true,tree,tree,occlusion,high,mask,partial viewing,many small,Stimulus\all_stim\occlusion\partialviewing\manysmall\high\manysmall_partialViewing_high_tree3.png,mask_img/000000052936.png,experiment,i,i,1018.819473800002
3,21,Male,Right,136,Block 1,1.2649736000021221,0.05,true,tree,tree,occlusion,high,mask,partial viewing,many small,Stimulus\all_stim\occlusion\partialviewing\manysmall\high\manysmall_partialViewing_high_tree8.png,mask_img/000000054334.png,experiment,i,i,1021.1791696
3,21,Male,Right,137,Block 1,1.6220768999992288,0.1,true,tree,tree,occlusion,control,mask,partial viewing,few large,Stimulus\all_stim\occlusion\partialviewing\fewlarge\control\fewlarge_partialViewing_control_tree5.png,mask_img/000000010991.png,experiment,i,i,1023.5791715000014
3,21,Male,Right,138,Block 1,1.131740800003172,0.05,true,firehydrant,firehydrant,occlusion,control,mask,partial viewing,few large,Stimulus\all_stim\occlusion\partialviewing\fewlarge\control\fewlarge_partialViewing_control_firehydrant4.png,mask_img/000000007952.png,experiment,r,r,1025.6831201999958
3,21,Male,Right,139,Block 1,0.8598853999938001,0.1,true,firehydrant,firehydrant,occlusion,control,mask,partial viewing,many small,Stimulus\all_stim\occlusion\partialviewing\manysmall\control\manysmall_partialViewing_control_firehydrant3.png,mask_img/000000039113.png,experiment,r,r,1027.6274021999998
3,21,Male,Right,140,Block 1,1.0020672000027844,0.05,true,building,building,occlusion,control,mask,partial viewing,few large,Stimulus\all_stim\occlusion\partialviewing\fewlarge\control\fewlarge_partialViewing_control_building3.png,mask_img/000000003694.png,experiment,o,o,1029.587009499999
3,21,Male,Right,141,Block 1,1.2745129999966593,0.025,false,bird,person,occlusion,high,mask,partial viewing,few large,Stimulus\all_stim\occlusion\partialviewing\fewlarge\high\fewlarge_partialViewing_high_bird3.png,mask_img/000000013455.png,experiment,u,p,1031.8272757000013
3,21,Male,Right,142,Block 1,1.2258501999967848,0.05,true,building,building,occlusion,low,mask,partial viewing,few large,Stimulus\all_stim\occlusion\partialviewing\fewlarge\low\fewlarge_partialViewing_low_building6.png,mask_img/000000025143.png,experiment,o,o,1033.8270026999962
3,21,Male,Right,143,Block 1,0.7710316000011517,0.1,true,banana,banana,occlusion,control,mask,partial viewing,many small,Stimulus\all_stim\occlusion\partialviewing\manysmall\control\manysmall_partialViewing_control_banana2.png,mask_img/000000033126.png,experiment,q,q,1035.275263800002
3,21,Male,Right,144,Block 1,1.658456400000432,0.05,true,tree,tree,occlusion,control,mask,partial viewing,few large,Stimulus\all_stim\occlusion\partialviewing\fewlarge\control\fewlarge_partialViewing_control_tree6.png,mask_img/000000011328.png,experiment,i,i,1117.3707930000019
3,21,Male,Right,145,Block 2,2.406286099998397,0.1,false,cat,tree,occlusion,high,mask,partial viewing,few large,Stimulus\all_stim\occlusion\partialviewing\fewlarge\high\fewlarge_partialViewing_high_cat1.png,mask_img/000000017183.png,experiment,i,e,1120.6988169999968
3,21,Male,Right,146,Block 2,0.7627495999986422,0.025,false,banana,building,occlusion,high,mask,partial viewing,many small,Stimulus\all_stim\occlusion\partialviewing\manysmall\high\manysmall_partialViewing_high_banana10.png,mask_img/000000042196.png,experiment,o,q,1122.3065924999974
3,21,Male,Right,147,Block 2,1.9360292999990634,0.1,true,person,person,occlusion,control,mask,partial viewing,many small,Stimulus\all_stim\occlusion\partialviewing\manysmall\control\manysmall_partialViewing_control_person7.png,mask_img/000000040399.png,experiment,u,u,1125.1718801000025
3,21,Male,Right,148,Block 2,0.903723399998853,0.05,false,bird,person,occlusion,low,mask,partial viewing,few large,Stimulus\all_stim\occlusion\partialviewing\fewlarge\low\fewlarge_partialViewing_low_bird4.png,mask_img/000000024193.png,experiment,u,p,1127.1387446000008
3,21,Male,Right,149,Block 2,0.7311786999998731,0.025,false,tree,building,occlusion,control,mask,partial viewing,few large,Stimulus\all_stim\occlusion\partialviewing\fewlarge\control\fewlarge_partialViewing_control_tree7.png,mask_img/000000011504.png,experiment,o,i,1128.6186080999978
3,21,Male,Right,150,Block 2,1.2679939000008744,0.025,false,bus,tree,occlusion,low,mask,partial viewing,many small,Stimulus\all_stim\occlusion\partialviewing\manysmall\low\manysmall_partialViewing_low_bus7.png,mask_img/000000058822.png,experiment,i,w,1130.7310635999966
3,21,Male,Right,151,Block 2,2.039419100001396,0.05,true,bus,bus,occlusion,high,mask,partial viewing,few large,Stimulus\all_stim\occlusion\partialviewing\fewlarge\high\fewlarge_partialViewing_high_bus10.png,mask_img/000000015733.png,experiment,w,w,1133.4668654999987
3,21,Male,Right,152,Block 2,0.8628616999994847,0.025,false,person,bus,occlusion,high,mask,partial viewing,many small,Stimulus\all_stim\occlusion\partialviewing\manysmall\high\manysmall_partialViewing_high_person1.png,mask_img/000000051310.png,experiment,w,u,1135.1947258
3,21,Male,Right,153,Block 2,1.5059590999953798,0.1,true,tree,tree,occlusion,low,mask,partial viewing,few large,Stimulus\all_stim\occlusion\partialviewing\fewlarge\low\fewlarge_partialViewing_low_tree5.png,mask_img/000000032403.png,experiment,i,i,1137.4986484999972
3,21,Male,Right,154,Block 2,1.0195867000002181,0.025,true,banana,banana,occlusion,low,mask,partial viewing,many small,Stimulus\all_stim\occlusion\partialviewing\manysmall\low\manysmall_partialViewing_low_banana4.png,mask_img/000000055202.png,experiment,q,q,1139.451034699996
3,21,Male,Right,155,Block 2,1.2458508999989135,0.05,true,bus,bus,occlusion,control,mask,partial viewing,many small,Stimulus\all_stim\occlusion\partialviewing\manysmall\control\manysmall_partialViewing_control_bus7.png,mask_img/000000037339.png,experiment,w,w,1141.8189211999997
3,21,Male,Right,156,Block 2,1.0238428000011481,0.1,false,firehydrant,banana,occlusion,high,mask,partial viewing,many small,Stimulus\all_stim\occlusion\partialviewing\manysmall\high\manysmall_partialViewing_high_firehydrant4.png,mask_img/000000050412.png,experiment,q,r,1143.4992054999966
3,21,Male,Right,157,Block 2,1.078731899993727,0.05,true,bus,bus,occlusion,control,mask,partial viewing,many small,Stimulus\all_stim\occlusion\partialviewing\manysmall\control\manysmall_partialViewing_control_bus5.png,mask_img/000000037140.png,experiment,w,w,1145.4826408000008
3,21,Male,Right,158,Block 2,1.420526100002462,0.025,false,person,cat,occlusion,high,mask,partial viewing,many small,Stimulus\all_stim\occlusion\partialviewing\manysmall\high\manysmall_partialViewing_high_person7.png,mask_img/000000052562.png,experiment,e,u,1147.5714752999993
3,21,Male,Right,159,Block 2,0.766876499998034,0.025,false,person,cat,occlusion,high,mask,partial viewing,many small,Stimulus\all_stim\occlusion\partialviewing\manysmall\high\manysmall_partialViewing_high_person2.png,mask_img/000000051461.png,experiment,e,u,1148.9946431999997
3,21,Male,Right,160,Block 2,0.9890280000036,0.05,true,banana,banana,occlusion,low,mask,partial viewing,few large,Stimulus\all_stim\occlusion\partialviewing\fewlarge\low\fewlarge_partialViewing_low_banana8.png,mask_img/000000023656.png,experiment,q,q,1150.6509338999967
3,21,Male,Right,161,Block 2,1.260647600000084,0.1,true,cat,cat,occlusion,control,mask,partial viewing,many small,Stimulus\all_stim\occlusion\partialviewing\manysmall\control\manysmall_partialViewing_control_cat5.png,mask_img/000000038601.png,experiment,e,e,1152.7230175000004
3,21,Male,Right,162,Block 2,1.1568698000046425,0.1,false,banana,cat,occlusion,high,mask,partial viewing,many small,Stimulus\all_stim\occlusion\partialviewing\manysmall\high\manysmall_partialViewing_high_banana2.png,mask_img/000000042408.png,experiment,e,q,1154.5309678999984
3,21,Male,Right,163,Block 2,1.0495077000014135,0.025,true,cat,cat,occlusion,control,mask,partial viewing,many small,Stimulus\all_stim\occlusion\partialviewing\manysmall\control\manysmall_partialViewing_control_cat1.png,mask_img/000000038177.png,experiment,e,e,1156.2347961999985
3,21,Male,Right,164,Block 2,0.7884009999979753,0.05,true,banana,banana,occlusion,high,mask,partial viewing,few large,Stimulus\all_stim\occlusion\partialviewing\fewlarge\high\fewlarge_partialViewing_high_banana10.png,mask_img/000000012178.png,experiment,q,q,1157.7945323000022
3,21,Male,Right,165,Block 2,1.1103752000053646,0.05,true,bus,bus,occlusion,low,mask,partial viewing,few large,Stimulus\all_stim\occlusion\partialviewing\fewlarge\low\fewlarge_partialViewing_low_bus3.png,mask_img/000000025997.png,experiment,w,w,1160.0345524000004
3,21,Male,Right,166,Block 2,1.2531662999972468,0.1,true,building,building,occlusion,high,mask,partial viewing,many small,Stimulus\all_stim\occlusion\partialviewing\manysmall\high\manysmall_partialViewing_high_building7.png,mask_img/000000046171.png,experiment,o,o,1162.2282517999993
3,21,Male,Right,167,Block 2,0.7508692999981577,0.05,false,firehydrant,building,occlusion,high,mask,partial viewing,many small,Stimulus\all_stim\occlusion\partialviewing\manysmall\high\manysmall_partialViewing_high_firehydrant9.png,mask_img/000000051164.png,experiment,o,r,1163.6504725999985
3,21,Male,Right,168,Block 2,1.1540303000001586,0.05,false,bird,cat,occlusion,low,mask,partial viewing,many small,Stimulus\all_stim\occlusion\partialviewing\manysmall\low\manysmall_partialViewing_low_bird4.png,mask_img/000000055859.png,experiment,e,p,1165.8506159000026
3,21,Male,Right,169,Block 2,0.8101457000011578,0.05,true,bird,bird,occlusion,control,mask,partial viewing,few large,Stimulus\all_stim\occlusion\partialviewing\fewlarge\control\fewlarge_partialViewing_control_bird5.png,mask_img/000000002197.png,experiment,p,p,1167.482553199996
3,21,Male,Right,170,Block 2,1.1415268999990076,0.1,true,bus,bus,occlusion,low,mask,partial viewing,few large,Stimulus\all_stim\occlusion\partialviewing\fewlarge\low\fewlarge_partialViewing_low_bus2.png,mask_img/000000025858.png,experiment,w,w,1169.411198599999
3,21,Male,Right,171,Block 2,1.236186499998439,0.05,true,firehydrant,firehydrant,occlusion,high,mask,partial viewing,few large,Stimulus\all_stim\occlusion\partialviewing\fewlarge\high\fewlarge_partialViewing_high_firehydrant6.png,mask_img/000000019134.png,experiment,r,r,1171.5785877000017
3,21,Male,Right,172,Block 2,1.9154854999942472,0.05,true,banana,banana,occlusion,low,mask,partial viewing,few large,Stimulus\all_stim\occlusion\partialviewing\fewlarge\low\fewlarge_partialViewing_low_banana5.png,mask_img/000000023100.png,experiment,q,q,1174.4746891999966
3,21,Male,Right,173,Block 2,1.6058988999939174,0.025,true,bus,bus,occlusion,control,mask,partial viewing,many small,Stimulus\all_stim\occlusion\partialviewing\manysmall\control\manysmall_partialViewing_control_bus10.png,mask_img/000000036482.png,experiment,w,w,1176.947250199999
3,21,Male,Right,174,Block 2,1.217225000000326,0.1,true,cat,cat,occlusion,high,mask,partial viewing,few large,Stimulus\all_stim\occlusion\partialviewing\fewlarge\high\fewlarge_partialViewing_high_cat3.png,mask_img/000000017356.png,experiment,e,e,1179.1229544000016
3,21,Male,Right,175,Block 2,1.2506589999975404,0.05,true,bird,bird,occlusion,control,mask,partial viewing,few large,Stimulus\all_stim\occlusion\partialviewing\fewlarge\control\fewlarge_partialViewing_control_bird8.png,mask_img/000000002822.png,experiment,p,p,1181.4510987999965
3,21,Male,Right,176,Block 2,1.1631871999998111,0.025,true,building,building,occlusion,low,mask,partial viewing,few large,Stimulus\all_stim\occlusion\partialviewing\fewlarge\low\fewlarge_partialViewing_low_building7.png,mask_img/000000025192.png,experiment,o,o,1183.6992539999992
3,21,Male,Right,177,Block 2,0.7754352999982075,0.1,true,building,building,occlusion,high,mask,partial viewing,many small,Stimulus\all_stim\occlusion\partialviewing\manysmall\high\manysmall_partialViewing_high_building9.png,mask_img/000000046345.png,experiment,o,o,1185.4191947
3,21,Male,Right,178,Block 2,1.035593600005086,0.1,true,firehydrant,firehydrant,occlusion,high,mask,partial viewing,few large,Stimulus\all_stim\occlusion\partialviewing\fewlarge\high\fewlarge_partialViewing_high_firehydrant7.png,mask_img/000000019463.png,experiment,r,r,1187.2430778999988
3,21,Male,Right,179,Block 2,1.899364600001718,0.025,true,bird,bird,occlusion,control,mask,partial viewing,few large,Stimulus\all_stim\occlusion\partialviewing\fewlarge\control\fewlarge_partialViewing_control_bird4.png,mask_img/000000001997.png,experiment,p,p,1189.8356749000013
3,21,Male,Right,180,Block 2,1.311265899996215,0.1,false,cat,building,occlusion,high,mask,partial viewing,many small,Stimulus\all_stim\occlusion\partialviewing\manysmall\high\manysmall_partialViewing_high_cat1.png,mask_img/000000048664.png,experiment,o,e,1192.1307517000023
3,21,Male,Right,181,Block 2,0.8445025999972131,0.1,false,firehydrant,bird,occlusion,high,mask,partial viewing,many small,Stimulus\all_stim\occlusion\partialviewing\manysmall\high\manysmall_partialViewing_high_firehydrant6.png,mask_img/000000050782.png,experiment,p,r,1193.947104400002
3,21,Male,Right,182,Block 2,1.1812378999966313,0.1,false,cat,building,occlusion,high,mask,partial viewing,many small,Stimulus\all_stim\occlusion\partialviewing\manysmall\high\manysmall_partialViewing_high_cat5.png,mask_img/000000049428.png,experiment,o,e,1195.8911326000016
3,21,Male,Right,183,Block 2,1.1441818000021158,0.1,true,banana,banana,occlusion,low,mask,partial viewing,many small,Stimulus\all_stim\occlusion\partialviewing\manysmall\low\manysmall_partialViewing_low_banana6.png,mask_img/000000055460.png,experiment,q,q,1197.8908685999995
3,21,Male,Right,184,Block 2,0.7266376000043238,0.025,true,banana,banana,occlusion,high,mask,partial viewing,few large,Stimulus\all_stim\occlusion\partialviewing\fewlarge\high\fewlarge_partialViewing_high_banana4.png,mask_img/000000012377.png,experiment,q,q,1199.5709580999974
3,21,Male,Right,185,Block 2,0.8545312999995076,0.1,false,firehydrant,banana,occlusion,high,mask,partial viewing,few large,Stimulus\all_stim\occlusion\partialviewing\fewlarge\high\fewlarge_partialViewing_high_firehydrant2.png,mask_img/000000018743.png,experiment,q,r,1201.0990904999999
3,21,Male,Right,186,Block 2,1.24611260000529,0.05,true,tree,tree,occlusion,control,mask,partial viewing,few large,Stimulus\all_stim\occlusion\partialviewing\fewlarge\control\fewlarge_partialViewing_control_tree9.png,mask_img/000000011701.png,experiment,i,i,1203.0430362999978
3,21,Male,Right,187,Block 2,1.3056970999969053,0.025,false,cat,tree,occlusion,low,mask,partial viewing,few large,Stimulus\all_stim\occlusion\partialviewing\fewlarge\low\fewlarge_partialViewing_low_cat8.png,mask_img/000000028171.png,experiment,i,e,1205.0665467
3,21,Male,Right,188,Block 2,0.8767353000002913,0.025,false,person,tree,occlusion,low,mask,partial viewing,many small,Stimulus\all_stim\occlusion\partialviewing\manysmall\low\manysmall_partialViewing_low_person8.png,mask_img/000000062420.png,experiment,i,u,1206.9227688000028
3,21,Male,Right,189,Block 2,0.843108500004746,0.05,true,banana,banana,occlusion,high,mask,partial viewing,few large,Stimulus\all_stim\occlusion\partialviewing\fewlarge\high\fewlarge_partialViewing_high_banana2.png,mask_img/000000012179.png,experiment,q,q,1208.8108988999957
3,21,Male,Right,190,Block 2,0.8192002000068896,0.025,false,person,bus,occlusion,low,mask,partial viewing,many small,Stimulus\all_stim\occlusion\partialviewing\manysmall\low\manysmall_partialViewing_low_person3.png,mask_img/000000062128.png,experiment,w,u,1210.4907434999986
3,21,Male,Right,191,Block 2,1.460807899995416,0.1,true,firehydrant,firehydrant,occlusion,control,mask,partial viewing,many small,Stimulus\all_stim\occlusion\partialviewing\manysmall\control\manysmall_partialViewing_control_firehydrant7.png,mask_img/000000039475.png,experiment,r,r,1212.755159799999
3,21,Male,Right,192,Block 2,1.2583876000062446,0.1,true,bus,bus,occlusion,control,mask,partial viewing,few large,Stimulus\all_stim\occlusion\partialviewing\fewlarge\control\fewlarge_partialViewing_control_bus9.png,mask_img/000000006263.png,experiment,w,w,1214.7947012000004
3,21,Male,Right,193,Block 2,1.2620778999989852,0.05,true,tree,tree,occlusion,low,mask,partial viewing,many small,Stimulus\all_stim\occlusion\partialviewing\manysmall\low\manysmall_partialViewing_low_tree2.png,mask_img/000000062875.png,experiment,i,i,1217.1390212999977
3,21,Male,Right,194,Block 2,1.222297599997546,0.025,true,bird,bird,occlusion,low,mask,partial viewing,few large,Stimulus\all_stim\occlusion\partialviewing\fewlarge\low\fewlarge_partialViewing_low_bird8.png,mask_img/000000024404.png,experiment,p,p,1219.490633399997
3,21,Male,Right,195,Block 2,1.1602012000003015,0.1,true,bus,bus,occlusion,low,mask,partial viewing,few large,Stimulus\all_stim\occlusion\partialviewing\fewlarge\low\fewlarge_partialViewing_low_bus4.png,mask_img/000000026053.png,experiment,w,w,1221.756929700001
3,21,Male,Right,196,Block 2,1.7631346999987727,0.1,false,bus,building,occlusion,high,mask,partial viewing,many small,Stimulus\all_stim\occlusion\partialviewing\manysmall\high\manysmall_partialViewing_high_bus1.png,mask_img/000000046676.png,experiment,o,w,1224.170818999999
3,21,Male,Right,197,Block 2,0.8437013999937335,0.05,true,firehydrant,firehydrant,occlusion,low,mask,partial viewing,few large,Stimulus\all_stim\occlusion\partialviewing\fewlarge\low\fewlarge_partialViewing_low_firehydrant5.png,mask_img/000000028698.png,experiment,r,r,1226.082581499999
3,21,Male,Right,198,Block 2,0.70616329999757,0.1,true,banana,banana,occlusion,control,mask,partial viewing,many small,Stimulus\all_stim\occlusion\partialviewing\manysmall\control\manysmall_partialViewing_control_banana1.png,mask_img/000000033073.png,experiment,q,q,1227.4911296999999
3,21,Male,Right,199,Block 2,1.3863412999999127,0.025,true,person,person,occlusion,low,mask,partial viewing,many small,Stimulus\all_stim\occlusion\partialviewing\manysmall\low\manysmall_partialViewing_low_person4.png,mask_img/000000062131.png,experiment,u,u,1229.5944304000004
3,21,Male,Right,200,Block 2,1.4865962999974727,0.05,false,bird,cat,occlusion,control,mask,partial viewing,many small,Stimulus\all_stim\occlusion\partialviewing\manysmall\control\manysmall_partialViewing_control_bird4.png,mask_img/000000034691.png,experiment,e,p,1232.0906688999967
3,21,Male,Right,201,Block 2,3.5642951000045286,0.05,false,cat,person,occlusion,high,mask,partial viewing,many small,Stimulus\all_stim\occlusion\partialviewing\manysmall\high\manysmall_partialViewing_high_cat7.png,mask_img/000000049602.png,experiment,u,e,1236.6832281000025
3,21,Male,Right,202,Block 2,0.9728271999993012,0.05,true,banana,banana,occlusion,high,mask,partial viewing,many small,Stimulus\all_stim\occlusion\partialviewing\manysmall\high\manysmall_partialViewing_high_banana4.png,mask_img/000000042499.png,experiment,q,q,1238.5468437000018
3,21,Male,Right,203,Block 2,2.7880528000023332,0.05,false,banana,bus,occlusion,high,mask,partial viewing,many small,Stimulus\all_stim\occlusion\partialviewing\manysmall\high\manysmall_partialViewing_high_banana5.png,mask_img/000000042541.png,experiment,w,q,1241.9864908000018
3,21,Male,Right,204,Block 2,2.1028034999981173,0.025,true,tree,tree,occlusion,control,mask,partial viewing,many small,Stimulus\all_stim\occlusion\partialviewing\manysmall\control\manysmall_partialViewing_control_tree10.png,mask_img/000000040948.png,experiment,i,i,1245.0191210999983
3,21,Male,Right,205,Block 2,0.7012669000032474,0.025,true,banana,banana,occlusion,control,mask,partial viewing,many small,Stimulus\all_stim\occlusion\partialviewing\manysmall\control\manysmall_partialViewing_control_banana3.png,mask_img/000000033323.png,experiment,q,q,1246.4033257999981
3,21,Male,Right,206,Block 2,1.5356352000017068,0.1,true,person,person,occlusion,low,mask,partial viewing,many small,Stimulus\all_stim\occlusion\partialviewing\manysmall\low\manysmall_partialViewing_low_person2.png,mask_img/000000061867.png,experiment,u,u,1248.7713005999976
3,21,Male,Right,207,Block 2,2.1743988000016543,0.05,false,banana,person,occlusion,low,mask,partial viewing,many small,Stimulus\all_stim\occlusion\partialviewing\manysmall\low\manysmall_partialViewing_low_banana1.png,mask_img/000000054532.png,experiment,u,q,1251.8512281000003
3,21,Male,Right,208,Block 2,5.359990899996774,0.1,true,building,building,occlusion,control,mask,partial viewing,few large,Stimulus\all_stim\occlusion\partialviewing\fewlarge\control\fewlarge_partialViewing_control_building9.png,mask_img/000000005131.png,experiment,o,o,1258.2831482999973
3,21,Male,Right,209,Block 2,0.7873775999978534,0.05,false,cat,banana,occlusion,high,mask,partial viewing,few large,Stimulus\all_stim\occlusion\partialviewing\fewlarge\high\fewlarge_partialViewing_high_cat1.png,mask_img/000000017183.png,experiment,q,e,1259.7705541999967
3,21,Male,Right,210,Block 2,2.8110405999977957,0.025,false,cat,person,occlusion,high,mask,partial viewing,many small,Stimulus\all_stim\occlusion\partialviewing\manysmall\high\manysmall_partialViewing_high_cat7.png,mask_img/000000049602.png,experiment,u,e,1263.6272950999992
3,21,Male,Right,211,Block 2,0.7561611999990419,0.05,true,banana,banana,occlusion,control,mask,partial viewing,few large,Stimulus\all_stim\occlusion\partialviewing\fewlarge\control\fewlarge_partialViewing_control_banana9.png,mask_img/000000000731.png,experiment,q,q,1265.2111339999974
3,21,Male,Right,212,Block 2,0.8406028000026708,0.1,true,firehydrant,firehydrant,occlusion,control,mask,partial viewing,many small,Stimulus\all_stim\occlusion\partialviewing\manysmall\control\manysmall_partialViewing_control_firehydrant2.png,mask_img/000000039089.png,experiment,r,r,1266.8190848000013
3,21,Male,Right,213,Block 2,0.906180800004222,0.025,true,building,building,occlusion,high,mask,partial viewing,many small,Stimulus\all_stim\occlusion\partialviewing\manysmall\high\manysmall_partialViewing_high_building4.png,mask_img/000000046025.png,experiment,o,o,1268.7471259000013
3,21,Male,Right,214,Block 2,1.760449300003529,0.025,true,bus,bus,occlusion,control,mask,partial viewing,few large,Stimulus\all_stim\occlusion\partialviewing\fewlarge\control\fewlarge_partialViewing_control_bus2.png,mask_img/000000005359.png,experiment,w,w,1271.5712889999995
3,21,Male,Right,215,Block 2,0.7617390000013984,0.05,true,banana,banana,occlusion,low,mask,partial viewing,few large,Stimulus\all_stim\occlusion\partialviewing\fewlarge\low\fewlarge_partialViewing_low_banana10.png,mask_img/000000022563.png,experiment,q,q,1273.186730399997
3,21,Male,Right,216,Block 2,0.8045466999974451,0.05,true,bird,bird,occlusion,control,mask,partial viewing,few large,Stimulus\all_stim\occlusion\partialviewing\fewlarge\control\fewlarge_partialViewing_control_bird3.png,mask_img/000000001810.png,experiment,p,p,1274.8671269999977
3,21,Male,Right,217,Block 2,0.8293610000037006,0.05,true,bird,bird,occlusion,control,mask,partial viewing,few large,Stimulus\all_stim\occlusion\partialviewing\fewlarge\control\fewlarge_partialViewing_control_bird7.png,mask_img/000000002774.png,experiment,p,p,1276.3631188
3,21,Male,Right,218,Block 2,1.8300202000027639,0.05,false,bus,building,occlusion,high,mask,partial viewing,many small,Stimulus\all_stim\occlusion\partialviewing\manysmall\high\manysmall_partialViewing_high_bus1.png,mask_img/000000046676.png,experiment,o,w,1279.2669645999995
3,21,Male,Right,219,Block 2,1.0279488999949535,0.05,true,tree,tree,occlusion,control,mask,partial viewing,many small,Stimulus\all_stim\occlusion\partialviewing\manysmall\control\manysmall_partialViewing_control_tree1.png,mask_img/000000040886.png,experiment,i,i,1281.218873699996
3,21,Male,Right,220,Block 2,1.1782883999985643,0.05,true,person,person,occlusion,low,mask,partial viewing,many small,Stimulus\all_stim\occlusion\partialviewing\manysmall\low\manysmall_partialViewing_low_person4.png,mask_img/000000062131.png,experiment,u,u,1283.243196299998
3,21,Male,Right,221,Block 2,1.177499600002193,0.05,false,bird,banana,occlusion,high,mask,partial viewing,many small,Stimulus\all_stim\occlusion\partialviewing\manysmall\high\manysmall_partialViewing_high_bird9.png,mask_img/000000044946.png,experiment,q,p,1285.5230424999972
3,21,Male,Right,222,Block 2,1.1800503999984358,0.05,true,banana,banana,occlusion,low,mask,partial viewing,many small,Stimulus\all_stim\occlusion\partialviewing\manysmall\low\manysmall_partialViewing_low_banana2.png,mask_img/000000054759.png,experiment,q,q,1287.4991353000005
3,21,Male,Right,223,Block 2,1.1503369999991264,0.1,true,building,building,occlusion,low,mask,partial viewing,few large,Stimulus\all_stim\occlusion\partialviewing\fewlarge\low\fewlarge_partialViewing_low_building9.png,mask_img/000000025516.png,experiment,o,o,1289.4272883000012
3,21,Male,Right,224,Block 2,1.0431341999938013,0.05,false,bird,banana,occlusion,high,mask,partial viewing,many small,Stimulus\all_stim\occlusion\partialviewing\manysmall\high\manysmall_partialViewing_high_bird3.png,mask_img/000000044123.png,experiment,q,p,1291.3308728999982
3,21,Male,Right,225,Block 2,1.0647177999999258,0.1,true,person,person,occlusion,control,mask,partial viewing,few large,Stimulus\all_stim\occlusion\partialviewing\fewlarge\control\fewlarge_partialViewing_control_person7.png,mask_img/000000009648.png,experiment,u,u,1293.4192159000013
3,21,Male,Right,226,Block 2,1.518852400004107,0.025,false,cat,tree,occlusion,low,mask,partial viewing,few large,Stimulus\all_stim\occlusion\partialviewing\fewlarge\low\fewlarge_partialViewing_low_cat10.png,mask_img/000000027319.png,experiment,i,e,1295.8274117999972
3,21,Male,Right,227,Block 2,2.03407149999839,0.025,true,firehydrant,firehydrant,occlusion,control,mask,partial viewing,many small,Stimulus\all_stim\occlusion\partialviewing\manysmall\control\manysmall_partialViewing_control_firehydrant2.png,mask_img/000000039089.png,experiment,r,r,1298.6990519999963
3,21,Male,Right,228,Block 2,1.0300066999989212,0.05,true,person,person,occlusion,low,mask,partial viewing,many small,Stimulus\all_stim\occlusion\partialviewing\manysmall\low\manysmall_partialViewing_low_person1.png,mask_img/000000061780.png,experiment,u,u,1300.7948149000003
3,21,Male,Right,229,Block 2,0.9513265999994474,0.1,true,firehydrant,firehydrant,occlusion,control,mask,partial viewing,many small,Stimulus\all_stim\occlusion\partialviewing\manysmall\control\manysmall_partialViewing_control_firehydrant8.png,mask_img/000000039553.png,experiment,r,r,1302.7626042999982
3,21,Male,Right,230,Block 2,0.9279220999960671,0.1,true,person,person,occlusion,high,mask,partial viewing,many small,Stimulus\all_stim\occlusion\partialviewing\manysmall\high\manysmall_partialViewing_high_person2.png,mask_img/000000051461.png,experiment,u,u,1304.771503099997
3,21,Male,Right,231,Block 2,0.7917044999994687,0.1,true,firehydrant,firehydrant,occlusion,control,mask,partial viewing,many small,Stimulus\all_stim\occlusion\partialviewing\manysmall\control\manysmall_partialViewing_control_firehydrant10.png,mask_img/000000039053.png,experiment,r,r,1306.5312600999969
3,21,Male,Right,232,Block 2,1.9705579000001308,0.1,true,person,person,occlusion,low,mask,partial viewing,many small,Stimulus\all_stim\occlusion\partialviewing\manysmall\low\manysmall_partialViewing_low_person7.png,mask_img/000000062350.png,experiment,u,u,1309.6191698999974
3,21,Male,Right,233,Block 2,0.8741093999997247,0.05,false,bird,person,occlusion,high,mask,partial viewing,few large,Stimulus\all_stim\occlusion\partialviewing\fewlarge\high\fewlarge_partialViewing_high_bird5.png,mask_img/000000013914.png,experiment,u,p,1311.4424692999964
3,21,Male,Right,234,Block 2,0.7420528999937233,0.025,true,person,person,occlusion,low,mask,partial viewing,few large,Stimulus\all_stim\occlusion\partialviewing\fewlarge\low\fewlarge_partialViewing_low_person1.png,mask_img/000000029090.png,experiment,u,u,1312.9626762999978
3,21,Male,Right,235,Block 2,1.5262262999967788,0.1,false,bus,person,occlusion,low,mask,partial viewing,many small,Stimulus\all_stim\occlusion\partialviewing\manysmall\low\manysmall_partialViewing_low_bus9.png,mask_img/000000058910.png,experiment,u,w,1315.3787198999999
3,21,Male,Right,236,Block 2,1.2335606000051484,0.1,true,firehydrant,firehydrant,occlusion,low,mask,partial viewing,many small,Stimulus\all_stim\occlusion\partialviewing\manysmall\low\manysmall_partialViewing_low_firehydrant8.png,mask_img/000000061512.png,experiment,r,r,1317.4357739999978
3,21,Male,Right,237,Block 2,0.8140130000028876,0.1,true,firehydrant,firehydrant,occlusion,high,mask,partial viewing,few large,Stimulus\all_stim\occlusion\partialviewing\fewlarge\high\fewlarge_partialViewing_high_firehydrant3.png,mask_img/000000018864.png,experiment,r,r,1318.9470912999968
3,21,Male,Right,238,Block 2,0.8173616999993101,0.025,true,firehydrant,firehydrant,occlusion,high,mask,partial viewing,few large,Stimulus\all_stim\occlusion\partialviewing\fewlarge\high\fewlarge_partialViewing_high_firehydrant2.png,mask_img/000000018743.png,experiment,r,r,1320.666702800001
3,21,Male,Right,239,Block 2,1.077032599998347,0.05,true,building,building,occlusion,high,mask,partial viewing,many small,Stimulus\all_stim\occlusion\partialviewing\manysmall\high\manysmall_partialViewing_high_building2.png,mask_img/000000045306.png,experiment,o,o,1322.5711654999977
3,21,Male,Right,240,Block 2,0.9600443000017549,0.1,true,person,person,occlusion,control,mask,partial viewing,few large,Stimulus\all_stim\occlusion\partialviewing\fewlarge\control\fewlarge_partialViewing_control_person4.png,mask_img/000000009178.png,experiment,u,u,1324.458967599996
3,21,Male,Right,241,Block 2,1.3448461000007228,0.025,true,building,building,occlusion,low,mask,partial viewing,many small,Stimulus\all_stim\occlusion\partialviewing\manysmall\low\manysmall_partialViewing_low_building2.png,mask_img/000000057551.png,experiment,o,o,1326.4825176000013
3,21,Male,Right,242,Block 2,0.7298231000022497,0.025,true,firehydrant,firehydrant,occlusion,control,mask,partial viewing,many small,Stimulus\all_stim\occlusion\partialviewing\manysmall\control\manysmall_partialViewing_control_firehydrant4.png,mask_img/000000039141.png,experiment,r,r,1327.970720899997
3,21,Male,Right,243,Block 2,0.9837138000002597,0.025,true,building,building,occlusion,high,mask,partial viewing,many small,Stimulus\all_stim\occlusion\partialviewing\manysmall\high\manysmall_partialViewing_high_building3.png,mask_img/000000045655.png,experiment,o,o,1329.9867307999957
3,21,Male,Right,244,Block 2,1.2443046000043978,0.05,true,firehydrant,firehydrant,occlusion,high,mask,partial viewing,few large,Stimulus\all_stim\occlusion\partialviewing\fewlarge\high\fewlarge_partialViewing_high_firehydrant7.png,mask_img/000000019463.png,experiment,r,r,1332.3226042000024
3,21,Male,Right,245,Block 2,2.6926587999987532,0.05,false,bus,building,occlusion,low,mask,partial viewing,many small,Stimulus\all_stim\occlusion\partialviewing\manysmall\low\manysmall_partialViewing_low_bus8.png,mask_img/000000058873.png,experiment,o,w,1335.8352068000022
3,21,Male,Right,246,Block 2,0.9953023000052781,0.05,false,bus,firehydrant,occlusion,low,mask,partial viewing,few large,Stimulus\all_stim\occlusion\partialviewing\fewlarge\low\fewlarge_partialViewing_low_bus10.png,mask_img/000000025855.png,experiment,r,w,1337.6911718999982
3,21,Male,Right,247,Block 2,0.9188916999992216,0.025,true,person,person,occlusion,low,mask,partial viewing,few large,Stimulus\all_stim\occlusion\partialviewing\fewlarge\low\fewlarge_partialViewing_low_person6.png,mask_img/000000030267.png,experiment,u,u,1339.3466354999982
3,21,Male,Right,248,Block 2,0.8417180999967968,0.025,false,banana,bus,occlusion,high,mask,partial viewing,many small,Stimulus\all_stim\occlusion\partialviewing\manysmall\high\manysmall_partialViewing_high_banana8.png,mask_img/000000043291.png,experiment,w,q,1341.1304969999983
3,21,Male,Right,249,Block 2,1.426326799999515,0.1,true,bird,bird,occlusion,control,mask,partial viewing,few large,Stimulus\all_stim\occlusion\partialviewing\fewlarge\control\fewlarge_partialViewing_control_bird10.png,mask_img/000000001053.png,experiment,p,p,1343.4506637000013
3,21,Male,Right,250,Block 2,1.5051333000010345,0.025,true,bus,bus,occlusion,control,mask,partial viewing,few large,Stimulus\all_stim\occlusion\partialviewing\fewlarge\control\fewlarge_partialViewing_control_bus4.png,mask_img/000000005574.png,experiment,w,w,1345.6504750999957
3,21,Male,Right,251,Block 2,2.0356287000031443,0.025,true,cat,cat,occlusion,low,mask,partial viewing,few large,Stimulus\all_stim\occlusion\partialviewing\fewlarge\low\fewlarge_partialViewing_low_cat1.png,mask_img/000000027151.png,experiment,e,e,1348.5629690999995
3,21,Male,Right,252,Block 2,0.9034848000010243,0.05,false,person,cat,occlusion,high,mask,partial viewing,many small,Stimulus\all_stim\occlusion\partialviewing\manysmall\high\manysmall_partialViewing_high_person9.png,mask_img/000000052619.png,experiment,e,u,1350.3065508
3,21,Male,Right,253,Block 2,1.000933299997996,0.025,true,bus,bus,occlusion,control,mask,partial viewing,few large,Stimulus\all_stim\occlusion\partialviewing\fewlarge\control\fewlarge_partialViewing_control_bus9.png,mask_img/000000006263.png,experiment,w,w,1351.9705519999989
3,21,Male,Right,254,Block 2,0.8055973000009544,0.1,true,banana,banana,occlusion,control,mask,partial viewing,few large,Stimulus\all_stim\occlusion\partialviewing\fewlarge\control\fewlarge_partialViewing_control_banana9.png,mask_img/000000000731.png,experiment,q,q,1353.691292399999
3,21,Male,Right,255,Block 2,0.8311434999995981,0.1,true,building,building,occlusion,low,mask,partial viewing,few large,Stimulus\all_stim\occlusion\partialviewing\fewlarge\low\fewlarge_partialViewing_low_building7.png,mask_img/000000025192.png,experiment,o,o,1355.5947309999974
3,21,Male,Right,256,Block 2,0.91488670000399,0.025,true,firehydrant,firehydrant,occlusion,low,mask,partial viewing,many small,Stimulus\all_stim\occlusion\partialviewing\manysmall\low\manysmall_partialViewing_low_firehydrant3.png,mask_img/000000060572.png,experiment,r,r,1357.5870473999967
3,21,Male,Right,257,Block 2,1.984749399998691,0.025,false,bus,firehydrant,occlusion,high,mask,partial viewing,few large,Stimulus\all_stim\occlusion\partialviewing\fewlarge\high\fewlarge_partialViewing_high_bus9.png,mask_img/000000016764.png,experiment,r,w,1360.667248699996
3,21,Male,Right,258,Block 2,1.4932872999997926,0.025,true,cat,cat,occlusion,control,mask,partial viewing,few large,Stimulus\all_stim\occlusion\partialviewing\fewlarge\control\fewlarge_partialViewing_control_cat9.png,mask_img/000000007558.png,experiment,e,e,1362.811136299999
3,21,Male,Right,259,Block 2,1.2837330999973346,0.05,true,bus,bus,occlusion,low,mask,partial viewing,many small,Stimulus\all_stim\occlusion\partialviewing\manysmall\low\manysmall_partialViewing_low_bus10.png,mask_img/000000058595.png,experiment,w,w,1365.0913233000028
3,21,Male,Right,260,Block 2,1.3860073999967426,0.05,true,bus,bus,occlusion,high,mask,partial viewing,many small,Stimulus\all_stim\occlusion\partialviewing\manysmall\high\manysmall_partialViewing_high_bus4.png,mask_img/000000047316.png,experiment,w,w,1367.2670316000003
3,21,Male,Right,261,Block 2,0.8701322000051732,0.1,true,bus,bus,occlusion,high,mask,partial viewing,few large,Stimulus\all_stim\occlusion\partialviewing\fewlarge\high\fewlarge_partialViewing_high_bus8.png,mask_img/000000016715.png,experiment,w,w,1369.1471798999992
3,21,Male,Right,262,Block 2,0.9336219000033452,0.05,false,cat,building,occlusion,high,mask,partial viewing,many small,Stimulus\all_stim\occlusion\partialviewing\manysmall\high\manysmall_partialViewing_high_cat4.png,mask_img/000000049331.png,experiment,o,e,1371.0267515000014
3,21,Male,Right,263,Block 2,1.0361359999951674,0.025,false,cat,banana,occlusion,high,mask,partial viewing,few large,Stimulus\all_stim\occlusion\partialviewing\fewlarge\high\fewlarge_partialViewing_high_cat7.png,mask_img/000000017580.png,experiment,q,e,1373.098943500001
3,21,Male,Right,264,Block 2,1.845243899995694,0.05,true,building,building,occlusion,control,mask,partial viewing,many small,Stimulus\all_stim\occlusion\partialviewing\manysmall\control\manysmall_partialViewing_control_building7.png,mask_img/000000036029.png,experiment,o,o,1375.7472359000021
3,21,Male,Right,265,Block 2,0.8012726000015391,0.025,false,person,building,occlusion,high,mask,partial viewing,few large,Stimulus\all_stim\occlusion\partialviewing\fewlarge\high\fewlarge_partialViewing_high_person3.png,mask_img/000000020147.png,experiment,o,u,1377.3068738000002
3,21,Male,Right,266,Block 2,2.2027912999983528,0.025,true,person,person,occlusion,control,mask,partial viewing,few large,Stimulus\all_stim\occlusion\partialviewing\fewlarge\control\fewlarge_partialViewing_control_person7.png,mask_img/000000009648.png,experiment,u,u,1380.1550334999993
3,21,Male,Right,267,Block 2,1.4968164999954752,0.05,true,building,building,occlusion,high,mask,partial viewing,few large,Stimulus\all_stim\occlusion\partialviewing\fewlarge\high\fewlarge_partialViewing_high_building4.png,mask_img/000000014592.png,experiment,o,o,1382.5469706000003
3,21,Male,Right,268,Block 2,1.3863943999967887,0.1,true,person,person,occlusion,high,mask,partial viewing,few large,Stimulus\all_stim\occlusion\partialviewing\fewlarge\high\fewlarge_partialViewing_high_person6.png,mask_img/000000020392.png,experiment,u,u,1385.0188293000028
3,21,Male,Right,269,Block 2,0.9512617000000319,0.1,false,firehydrant,building,occlusion,high,mask,partial viewing,many small,Stimulus\all_stim\occlusion\partialviewing\manysmall\high\manysmall_partialViewing_high_firehydrant3.png,mask_img/000000050276.png,experiment,o,r,1386.803114299997
3,21,Male,Right,270,Block 2,1.5878307999955723,0.1,true,bird,bird,occlusion,low,mask,partial viewing,few large,Stimulus\all_stim\occlusion\partialviewing\fewlarge\low\fewlarge_partialViewing_low_bird8.png,mask_img/000000024404.png,experiment,p,p,1389.1874420000022
3,21,Male,Right,271,Block 2,1.9756975000054808,0.05,true,bird,bird,occlusion,control,mask,partial viewing,many small,Stimulus\all_stim\occlusion\partialviewing\manysmall\control\manysmall_partialViewing_control_bird3.png,mask_img/000000034570.png,experiment,p,p,1392.0749737000006
3,21,Male,Right,272,Block 2,1.3785452000010991,0.05,false,person,tree,occlusion,high,mask,partial viewing,few large,Stimulus\all_stim\occlusion\partialviewing\fewlarge\high\fewlarge_partialViewing_high_person6.png,mask_img/000000020392.png,experiment,i,u,1394.458856899997
3,21,Male,Right,273,Block 2,1.7497516000003088,0.05,true,cat,cat,occlusion,control,mask,partial viewing,few large,Stimulus\all_stim\occlusion\partialviewing\fewlarge\control\fewlarge_partialViewing_control_cat5.png,mask_img/000000006870.png,experiment,e,e,1397.1550174000004
