,pt_num,trial_nbr,block_number,rt,soa,acc,category,choiced_category,difficulty,size_occl,pressed_key,correct_key
1,1,2,Block 1,1.147470799999951,0.1,True,cat,cat,high,few large,q,q
3,1,4,Block 1,1.216054700000086,0.1,True,cat,cat,low,few large,q,q
4,1,5,Block 1,2.3556472000000213,0.1,True,bird,bird,control,many small,w,w
5,1,6,Block 1,1.6406640999999809,0.05,True,bus,bus,low,many small,u,u
6,1,7,Block 1,2.0791178000000627,0.1,True,building,building,low,few large,o,o
7,1,8,Block 1,1.92365940000002,0.025,False,cat,tree,low,many small,p,q
8,1,9,Block 1,2.1682321999999203,0.1,True,tree,tree,low,many small,p,p
9,1,10,Block 1,1.1702314000000342,0.05,True,tree,tree,low,few large,p,p
10,1,11,Block 1,1.9746922000000493,0.025,True,person,person,control,few large,e,e
11,1,12,Block 1,1.3810904999999138,0.05,True,person,person,low,few large,e,e
12,1,13,Block 1,1.4356956999999966,0.025,True,firehydrant,firehydrant,low,few large,i,i
13,1,14,Block 1,1.5602757000000338,0.1,True,person,person,control,few large,e,e
14,1,15,Block 1,2.007528300000104,0.05,True,bird,bird,high,few large,w,w
15,1,16,Block 1,1.406545700000038,0.05,True,firehydrant,firehydrant,low,few large,i,i
16,1,17,Block 1,2.019125099999997,0.1,True,bird,bird,control,few large,w,w
17,1,18,Block 1,1.3814552000000049,0.1,True,tree,tree,control,few large,p,p
18,1,19,Block 1,1.9660432000000585,0.1,True,bird,bird,low,few large,w,w
19,1,20,Block 1,1.6921664999999848,0.1,True,person,person,high,few large,e,e
20,1,21,Block 1,0.9872998999999254,0.05,True,person,person,control,many small,e,e
21,1,22,Block 1,2.3419622999999774,0.05,False,cat,tree,high,many small,p,q
22,1,23,Block 1,1.5921758999999156,0.05,False,cat,tree,low,many small,p,q
23,1,24,Block 1,2.0001810999999634,0.025,False,cat,firehydrant,high,few large,i,q
25,1,26,Block 1,1.411327599999936,0.025,False,bird,person,control,many small,e,w
26,1,27,Block 1,1.8688020999999253,0.025,True,person,person,high,many small,e,e
27,1,28,Block 1,0.8714253000000554,0.025,True,person,person,high,few large,e,e
28,1,29,Block 1,2.224242600000025,0.1,False,banana,bus,high,many small,u,r
29,1,30,Block 1,1.3087715000000344,0.025,True,firehydrant,firehydrant,control,many small,i,i
30,1,31,Block 1,1.7635688999999957,0.05,True,bus,bus,control,few large,u,u
31,1,32,Block 1,1.301805100000024,0.1,True,firehydrant,firehydrant,control,few large,i,i
32,1,33,Block 1,1.158299599999964,0.05,True,firehydrant,firehydrant,low,many small,i,i
33,1,34,Block 1,1.0726810999999543,0.1,True,firehydrant,firehydrant,control,many small,i,i
35,1,36,Block 1,1.3190100000000484,0.05,True,tree,tree,control,few large,p,p
36,1,37,Block 1,1.6223390999999765,0.1,True,firehydrant,firehydrant,low,many small,i,i
37,1,38,Block 1,1.53216359999999,0.025,False,bird,firehydrant,high,few large,i,w
38,1,39,Block 1,1.8429208999999676,0.05,True,tree,tree,control,few large,p,p
39,1,40,Block 1,1.5797913000000108,0.05,True,person,person,high,many small,e,e
41,1,42,Block 1,1.6758287999999766,0.05,True,bird,bird,control,many small,w,w
42,1,43,Block 1,1.8745854000000008,0.025,True,tree,tree,high,many small,p,p
43,1,44,Block 1,1.4363106000000698,0.05,True,firehydrant,firehydrant,low,few large,i,i
44,1,45,Block 1,2.3309331000000384,0.025,False,banana,firehydrant,low,many small,i,r
46,1,47,Block 1,1.2442429999999831,0.025,True,bird,bird,control,few large,w,w
47,1,48,Block 1,1.676976599999989,0.05,True,banana,banana,control,few large,r,r
48,1,49,Block 1,1.4683307999999895,0.05,True,person,person,high,few large,e,e
49,1,50,Block 1,0.8210433000000421,0.05,True,person,person,control,few large,e,e
50,1,51,Block 1,2.2701981999999816,0.05,True,building,building,low,many small,o,o
51,1,52,Block 1,2.068339000000037,0.05,False,bus,building,high,many small,o,u
52,1,53,Block 1,1.698763500000041,0.025,False,cat,bird,control,many small,w,q
53,1,54,Block 1,1.3507815000000392,0.025,True,firehydrant,firehydrant,low,few large,i,i
54,1,55,Block 1,1.7377670000000762,0.1,True,building,building,high,many small,o,o
55,1,56,Block 1,1.98085930000002,0.05,True,building,building,high,many small,o,o
56,1,57,Block 1,1.5227654999999911,0.05,True,person,person,control,many small,e,e
57,1,58,Block 1,1.3911593999999925,0.025,True,bus,bus,control,many small,u,u
58,1,59,Block 1,1.9893746000000192,0.05,True,bus,bus,control,few large,u,u
60,1,61,Block 1,1.94058229999996,0.025,False,banana,bus,high,few large,u,r
61,1,62,Block 1,1.396650300000033,0.1,True,cat,cat,control,few large,q,q
62,1,63,Block 1,1.7182133999999678,0.05,True,bird,bird,low,few large,w,w
63,1,64,Block 1,1.6694039000000205,0.1,True,person,person,low,many small,e,e
64,1,65,Block 1,1.6948725999999397,0.025,True,bus,bus,low,few large,u,u
65,1,66,Block 1,0.8666507999998885,0.025,True,cat,cat,control,few large,q,q
66,1,67,Block 1,2.1177134000001843,0.05,True,building,building,low,many small,o,o
67,1,68,Block 1,1.143198400000074,0.025,True,building,building,high,many small,o,o
68,1,69,Block 1,1.430026200000157,0.025,True,firehydrant,firehydrant,control,few large,i,i
69,1,70,Block 1,1.697119100000009,0.1,True,bird,bird,low,few large,w,w
70,1,71,Block 1,1.854154199999812,0.05,True,banana,banana,low,many small,r,r
71,1,72,Block 1,1.6370139000000563,0.1,True,building,building,control,many small,o,o
72,1,73,Block 1,1.6947655999999824,0.05,True,firehydrant,firehydrant,low,few large,i,i
73,1,74,Block 1,1.4254389000000174,0.1,True,person,person,high,few large,e,e
74,1,75,Block 1,1.2720741000000544,0.025,True,firehydrant,firehydrant,control,few large,i,i
75,1,76,Block 1,1.138549600000033,0.05,True,tree,tree,control,few large,p,p
76,1,77,Block 1,1.7538561999999729,0.025,False,bird,firehydrant,low,many small,i,w
77,1,78,Block 1,1.3749639000000116,0.025,True,person,person,control,few large,e,e
78,1,79,Block 1,1.4998538999998343,0.025,True,tree,tree,low,many small,p,p
79,1,80,Block 1,1.8166208000000097,0.1,True,bus,bus,high,many small,u,u
80,1,81,Block 1,2.0196648000001005,0.1,False,firehydrant,person,high,few large,e,i
81,1,82,Block 1,1.660849300000109,0.025,True,tree,tree,control,many small,p,p
82,1,83,Block 1,1.388619800000015,0.1,True,bird,bird,control,few large,w,w
83,1,84,Block 1,1.7683744999999362,0.1,True,tree,tree,control,few large,p,p
84,1,85,Block 1,1.3691767999998774,0.1,True,person,person,low,few large,e,e
85,1,86,Block 1,0.9352782999999364,0.025,True,person,person,high,few large,e,e
86,1,87,Block 1,0.7767550999999457,0.1,True,person,person,control,many small,e,e
87,1,88,Block 1,1.4628625999998803,0.05,True,bus,bus,control,many small,u,u
88,1,89,Block 1,1.3321452000000136,0.025,False,bird,person,low,many small,e,w
89,1,90,Block 1,1.088885399999981,0.05,True,tree,tree,control,few large,p,p
90,1,91,Block 1,1.6128158999999869,0.1,True,firehydrant,firehydrant,high,few large,i,i
91,1,92,Block 1,1.3427464999999756,0.1,True,person,person,high,many small,e,e
92,1,93,Block 1,1.545382600000039,0.025,False,banana,person,low,few large,e,r
93,1,94,Block 1,1.3104557999999995,0.05,True,bird,bird,control,many small,w,w
94,1,95,Block 1,1.286014199999954,0.025,True,firehydrant,firehydrant,control,few large,i,i
95,1,96,Block 1,1.477004000000079,0.05,True,bus,bus,high,few large,u,u
96,1,97,Block 1,1.0178920999999264,0.05,True,tree,tree,low,few large,p,p
97,1,98,Block 1,2.17190259999984,0.05,False,bus,firehydrant,high,many small,i,u
98,1,99,Block 1,0.9041597000000364,0.1,True,firehydrant,firehydrant,low,few large,i,i
99,1,100,Block 1,0.9490209000000503,0.05,True,tree,tree,low,few large,p,p
100,1,101,Block 1,0.8681521000000885,0.1,True,firehydrant,firehydrant,low,many small,i,i
101,1,102,Block 1,1.6984733000001595,0.1,True,bird,bird,control,many small,w,w
102,1,103,Block 1,1.072503799999822,0.05,True,bird,bird,low,few large,w,w
103,1,104,Block 1,1.8754064999998263,0.05,True,building,building,high,few large,o,o
104,1,105,Block 1,1.509289300000091,0.05,True,banana,banana,control,few large,r,r
105,1,106,Block 1,2.2189129000000776,0.025,True,cat,cat,control,few large,q,q
106,1,107,Block 1,1.5565212000001338,0.025,True,bus,bus,low,few large,u,u
107,1,108,Block 1,2.0701722999999674,0.025,False,building,bus,low,many small,u,o
108,1,109,Block 1,0.8258581000000049,0.025,True,bus,bus,low,few large,u,u
109,1,110,Block 1,1.376301400000102,0.05,True,person,person,low,few large,e,e
110,1,111,Block 1,0.9650129000001472,0.05,True,tree,tree,high,few large,p,p
111,1,112,Block 1,1.0249214000000393,0.1,True,cat,cat,control,few large,q,q
112,1,113,Block 1,1.5540877999999338,0.025,True,banana,banana,control,few large,r,r
113,1,114,Block 1,1.540849699999853,0.025,True,bus,bus,high,few large,u,u
114,1,115,Block 1,1.2072594000001118,0.05,True,tree,tree,control,few large,p,p
115,1,116,Block 1,1.0616044999999303,0.1,True,tree,tree,high,few large,p,p
116,1,117,Block 1,1.335792999999967,0.1,True,firehydrant,firehydrant,low,few large,i,i
117,1,118,Block 1,1.624537799999871,0.025,True,person,person,low,few large,e,e
118,1,119,Block 1,2.361944499999936,0.1,True,banana,banana,low,few large,r,r
119,1,120,Block 1,1.4161725000001295,0.025,False,firehydrant,banana,high,many small,r,i
120,1,121,Block 1,2.114646900000025,0.05,True,bus,bus,control,few large,u,u
121,1,122,Block 1,1.3132114,0.025,False,cat,tree,high,few large,p,q
122,1,123,Block 1,1.4022950999999466,0.025,True,firehydrant,firehydrant,control,many small,i,i
123,1,124,Block 1,2.3612813000002006,0.1,False,bird,firehydrant,high,many small,i,w
124,1,125,Block 1,0.8969806999998582,0.025,True,tree,tree,low,few large,p,p
125,1,126,Block 1,1.5901198999999906,0.025,True,bus,bus,low,few large,u,u
127,1,128,Block 1,1.20312540000009,0.025,True,firehydrant,firehydrant,control,few large,i,i
128,1,129,Block 1,1.7985046999999668,0.025,True,banana,banana,low,many small,r,r
129,1,130,Block 1,1.7297132000001056,0.025,True,building,building,control,few large,o,o
130,1,131,Block 1,1.4096856000001026,0.025,True,banana,banana,control,many small,r,r
131,1,132,Block 1,1.3870716000001266,0.025,False,tree,banana,low,many small,r,p
132,1,133,Block 1,1.1349201000000448,0.1,True,banana,banana,low,many small,r,r
134,1,135,Block 1,0.9671837000000778,0.05,True,cat,cat,control,many small,q,q
135,1,136,Block 1,1.175237199999856,0.025,True,bird,bird,high,few large,w,w
136,1,137,Block 1,1.1623187000000144,0.05,True,bird,bird,high,few large,w,w
137,1,138,Block 1,1.3515720000000329,0.1,True,person,person,control,many small,e,e
138,1,139,Block 1,1.3770200999999815,0.05,True,tree,tree,high,few large,p,p
139,1,140,Block 1,1.8550015000000712,0.05,True,building,building,control,many small,o,o
140,1,141,Block 1,1.478387399999974,0.05,True,bus,bus,control,few large,u,u
141,1,142,Block 1,1.314451500000132,0.1,True,cat,cat,low,many small,q,q
142,1,143,Block 1,2.1325913000000583,0.05,True,bird,bird,high,many small,w,w
143,1,144,Block 1,2.0754052999998294,0.1,True,firehydrant,firehydrant,control,few large,i,i
144,1,145,Block 2,0.9080523000000084,0.05,True,tree,tree,control,few large,p,p
145,1,146,Block 2,1.4574477999999544,0.025,False,banana,firehydrant,high,many small,i,r
146,1,147,Block 2,1.0380170999999336,0.025,True,tree,tree,high,few large,p,p
147,1,148,Block 2,1.4640721999999189,0.025,True,tree,tree,high,few large,p,p
148,1,149,Block 2,1.9576766000000132,0.05,True,bus,bus,high,many small,u,u
150,1,151,Block 2,1.5782279999998536,0.025,True,banana,banana,control,few large,r,r
151,1,152,Block 2,1.8011633000000984,0.025,True,bus,bus,low,many small,u,u
152,1,153,Block 2,1.101399499999843,0.025,False,bird,tree,high,many small,p,w
153,1,154,Block 2,1.4968004999998357,0.05,True,firehydrant,firehydrant,control,many small,i,i
154,1,155,Block 2,1.189911999999822,0.025,False,bird,tree,high,many small,p,w
155,1,156,Block 2,0.9023136000000704,0.05,False,bird,tree,high,few large,p,w
156,1,157,Block 2,0.750504200000023,0.1,True,tree,tree,high,many small,p,p
157,1,158,Block 2,1.5569279999999708,0.05,True,firehydrant,firehydrant,control,few large,i,i
158,1,159,Block 2,1.1326297000000525,0.1,True,building,building,high,many small,o,o
159,1,160,Block 2,1.40105890000018,0.1,True,banana,banana,control,few large,r,r
160,1,161,Block 2,1.3519366000000446,0.05,True,building,building,high,many small,o,o
161,1,162,Block 2,1.9053632000000107,0.025,True,bird,bird,low,few large,w,w
162,1,163,Block 2,2.147982700000057,0.1,True,banana,banana,control,many small,r,r
163,1,164,Block 2,1.1064871999999468,0.025,True,tree,tree,low,few large,p,p
164,1,165,Block 2,1.3056739999999536,0.025,True,bus,bus,control,many small,u,u
165,1,166,Block 2,1.5991453000001457,0.1,True,building,building,control,many small,o,o
166,1,167,Block 2,1.0839714999999617,0.1,True,firehydrant,firehydrant,low,many small,i,i
167,1,168,Block 2,1.7616356000000906,0.1,True,bird,bird,low,many small,w,w
168,1,169,Block 2,1.69598330000008,0.1,True,tree,tree,control,few large,p,p
169,1,170,Block 2,1.2137373999999,0.1,True,bus,bus,control,many small,u,u
170,1,171,Block 2,1.121965199999977,0.025,True,cat,cat,low,few large,q,q
171,1,172,Block 2,2.110738099999935,0.05,False,bird,cat,high,many small,q,w
172,1,173,Block 2,1.903292100000044,0.05,True,cat,cat,low,few large,q,q
173,1,174,Block 2,1.4314166000001478,0.1,True,bus,bus,high,few large,u,u
174,1,175,Block 2,1.6259953000001133,0.05,True,banana,banana,high,few large,r,r
175,1,176,Block 2,1.397896800000126,0.1,True,firehydrant,firehydrant,control,many small,i,i
176,1,177,Block 2,1.808631699999978,0.025,True,bird,bird,high,few large,w,w
177,1,178,Block 2,1.2431203999999525,0.1,True,bus,bus,control,few large,u,u
178,1,179,Block 2,1.1841093999998975,0.025,True,bus,bus,low,few large,u,u
179,1,180,Block 2,1.4199808000000758,0.05,True,building,building,control,many small,o,o
180,1,181,Block 2,2.1435598999999,0.025,False,person,tree,low,many small,p,e
181,1,182,Block 2,2.3423396999999118,0.1,True,cat,cat,high,many small,q,q
182,1,183,Block 2,1.7068045999999413,0.025,True,building,building,control,many small,o,o
183,1,184,Block 2,0.9859099000000242,0.1,True,building,building,low,few large,o,o
184,1,185,Block 2,1.2397960000000694,0.1,True,bus,bus,low,few large,u,u
185,1,186,Block 2,1.430922100000089,0.025,True,tree,tree,low,many small,p,p
186,1,187,Block 2,1.6042419000000336,0.025,False,building,cat,high,few large,q,o
187,1,188,Block 2,2.048359399999981,0.05,True,banana,banana,control,many small,r,r
188,1,189,Block 2,1.5305181000001085,0.1,True,building,building,control,many small,o,o
189,1,190,Block 2,1.5587304999999103,0.05,True,tree,tree,high,many small,p,p
191,1,192,Block 2,2.075837900000124,0.025,False,person,cat,high,many small,q,e
192,1,193,Block 2,1.4646610999998302,0.1,True,bus,bus,low,few large,u,u
193,1,194,Block 2,2.311954299999797,0.1,True,bird,bird,low,few large,w,w
194,1,195,Block 2,0.8490636999999879,0.1,True,cat,cat,control,few large,q,q
195,1,196,Block 2,1.778047400000105,0.025,True,building,building,control,many small,o,o
196,1,197,Block 2,1.5330630000000838,0.1,True,building,building,control,many small,o,o
197,1,198,Block 2,0.6638104999999541,0.05,True,building,building,high,few large,o,o
198,1,199,Block 2,1.3058346000000256,0.05,True,bird,bird,low,few large,w,w
199,1,200,Block 2,0.825035699999944,0.025,True,tree,tree,control,few large,p,p
200,1,201,Block 2,1.2863800000000083,0.1,True,firehydrant,firehydrant,control,many small,i,i
201,1,202,Block 2,2.055318599999964,0.025,True,person,person,control,many small,e,e
202,1,203,Block 2,0.8779938000000129,0.05,True,cat,cat,low,few large,q,q
203,1,204,Block 2,1.6930863999998564,0.1,False,bird,cat,high,many small,q,w
204,1,205,Block 2,1.663156600000093,0.05,True,bus,bus,high,many small,u,u
205,1,206,Block 2,1.2500936999999794,0.05,True,cat,cat,high,many small,q,q
206,1,207,Block 2,1.086653399999932,0.025,True,bus,bus,low,many small,u,u
207,1,208,Block 2,1.1942427999999836,0.1,True,building,building,high,many small,o,o
208,1,209,Block 2,1.9292155999999068,0.1,False,banana,cat,high,few large,q,r
209,1,210,Block 2,1.5933613999998215,0.05,True,banana,banana,high,few large,r,r
210,1,211,Block 2,1.0461201999999048,0.025,True,cat,cat,control,few large,q,q
211,1,212,Block 2,1.405072999999902,0.025,False,firehydrant,cat,high,many small,q,i
212,1,213,Block 2,2.16695320000008,0.05,True,building,building,control,few large,o,o
213,1,214,Block 2,1.5257638000000495,0.05,False,banana,bus,control,many small,u,r
214,1,215,Block 2,1.6900558000002093,0.025,False,bird,person,low,many small,e,w
215,1,216,Block 2,1.887773199999856,0.1,True,banana,banana,control,many small,r,r
216,1,217,Block 2,1.321641199999931,0.05,True,banana,banana,high,many small,r,r
217,1,218,Block 2,1.6049560999999812,0.1,True,person,person,control,many small,e,e
218,1,219,Block 2,1.4071059000000332,0.05,True,banana,banana,high,many small,r,r
219,1,220,Block 2,1.0498170999999274,0.05,True,person,person,control,few large,e,e
221,1,222,Block 2,1.5215275000000474,0.1,True,bus,bus,low,many small,u,u
222,1,223,Block 2,1.7343554999999924,0.1,True,person,person,high,few large,e,e
223,1,224,Block 2,0.809239400000024,0.05,True,person,person,low,many small,e,e
224,1,225,Block 2,0.9517258999999284,0.025,True,tree,tree,control,few large,p,p
225,1,226,Block 2,1.2091525999999249,0.025,True,person,person,high,many small,e,e
226,1,227,Block 2,1.6966262999999344,0.025,True,person,person,control,few large,e,e
227,1,228,Block 2,1.796565800000053,0.05,True,building,building,low,few large,o,o
228,1,229,Block 2,1.0737330000001748,0.1,True,tree,tree,high,many small,p,p
229,1,230,Block 2,1.4781673999998477,0.1,True,cat,cat,low,few large,q,q
230,1,231,Block 2,0.7127843000000667,0.1,True,cat,cat,control,many small,q,q
231,1,232,Block 2,1.124587999999903,0.025,True,firehydrant,firehydrant,high,few large,i,i
232,1,233,Block 2,1.270865400000048,0.025,True,person,person,control,many small,e,e
233,1,234,Block 2,2.0866390000001047,0.05,True,building,building,low,many small,o,o
234,1,235,Block 2,1.4596624000000702,0.025,False,banana,bus,control,few large,u,r
235,1,236,Block 2,2.0141481999999087,0.025,False,firehydrant,bus,high,few large,u,i
236,1,237,Block 2,0.9644075999999586,0.025,True,person,person,control,few large,e,e
238,1,239,Block 2,1.0302604000000883,0.1,True,person,person,control,few large,e,e
240,1,241,Block 2,0.939477399999987,0.05,True,tree,tree,low,few large,p,p
241,1,242,Block 2,0.925092100000029,0.1,True,person,person,low,few large,e,e
242,1,243,Block 2,1.5376108000000386,0.025,True,building,building,control,few large,o,o
243,1,244,Block 2,0.996460099999922,0.1,False,bird,cat,high,few large,q,w
245,1,246,Block 2,1.0534269999998287,0.05,True,bus,bus,low,many small,u,u
246,1,247,Block 2,1.7505840999999691,0.05,True,banana,banana,low,few large,r,r
247,1,248,Block 2,0.767145199999959,0.05,True,tree,tree,low,few large,p,p
248,1,249,Block 2,1.4525676999999175,0.025,True,person,person,control,few large,e,e
249,1,250,Block 2,1.191532000000052,0.1,True,firehydrant,firehydrant,low,many small,i,i
250,1,251,Block 2,1.4689213999999993,0.025,True,banana,banana,low,few large,r,r
251,1,252,Block 2,0.9687357000000248,0.1,True,person,person,low,many small,e,e
252,1,253,Block 2,1.2773219999999128,0.1,True,bird,bird,high,few large,w,w
253,1,254,Block 2,0.675776199999973,0.05,True,cat,cat,high,few large,q,q
254,1,255,Block 2,0.8941251999999622,0.05,True,person,person,high,few large,e,e
255,1,256,Block 2,0.7864537000000382,0.1,True,tree,tree,low,few large,p,p
256,1,257,Block 2,2.282488300000068,0.025,False,bus,building,low,many small,o,u
257,1,258,Block 2,1.1738797999998951,0.05,True,bird,bird,low,many small,w,w
258,1,259,Block 2,1.2690470000000005,0.05,False,banana,bird,low,many small,w,r
259,1,260,Block 2,2.063114799999994,0.05,False,bird,cat,control,many small,q,w
260,1,261,Block 2,0.7236533000000236,0.1,True,cat,cat,low,few large,q,q
261,1,262,Block 2,1.1783731999998963,0.05,True,firehydrant,firehydrant,low,few large,i,i
262,1,263,Block 2,1.237262000000101,0.05,True,bus,bus,control,many small,u,u
263,1,264,Block 2,0.6697091999999429,0.05,True,bus,bus,control,few large,u,u
264,1,265,Block 2,1.818856400000186,0.05,True,banana,banana,low,many small,r,r
265,1,266,Block 2,0.9474734000000352,0.1,False,bus,banana,low,many small,r,u
266,1,267,Block 2,0.7332237000000532,0.025,False,firehydrant,banana,high,many small,r,i
267,1,268,Block 2,2.160364800000025,0.05,False,firehydrant,banana,high,few large,r,i
268,1,269,Block 2,1.2860823999999411,0.025,False,bird,person,low,many small,e,w
269,1,270,Block 2,1.025166800000079,0.025,True,tree,tree,high,many small,p,p
270,1,271,Block 2,1.79087689999983,0.025,True,building,building,high,few large,o,o
271,1,272,Block 2,1.0656005999999252,0.1,True,firehydrant,firehydrant,low,few large,i,i
272,1,273,Block 2,1.3243585000000166,0.05,True,cat,cat,high,few large,q,q
273,1,274,Block 2,2.105340399999932,0.025,True,banana,banana,low,many small,r,r
274,1,275,Block 2,0.8392551999997977,0.1,True,banana,banana,low,few large,r,r
275,1,276,Block 2,1.1398158000001786,0.025,True,bus,bus,control,many small,u,u
276,1,277,Block 2,1.3672851999999691,0.1,True,cat,cat,high,few large,q,q
277,1,278,Block 2,1.3268046999999117,0.025,True,firehydrant,firehydrant,high,many small,i,i
278,1,279,Block 2,1.0631883000000926,0.025,True,bus,bus,control,many small,u,u
279,1,280,Block 2,1.2711477000000286,0.1,True,person,person,low,many small,e,e
280,1,281,Block 2,1.0854644999999437,0.05,True,cat,cat,low,many small,q,q
281,1,282,Block 2,1.3916216000000077,0.025,True,bus,bus,high,many small,u,u
282,1,283,Block 2,2.021415100000013,0.025,True,building,building,low,few large,o,o
283,1,284,Block 2,1.5695576999999048,0.025,False,bird,cat,high,many small,q,w
284,1,285,Block 2,1.0794972000001053,0.05,True,person,person,low,many small,e,e
285,1,286,Block 2,1.12222759999986,0.1,True,cat,cat,control,many small,q,q
286,1,287,Block 2,2.127145599999949,0.025,True,cat,cat,control,few large,q,q
287,1,288,Block 2,1.031389499999932,0.05,True,cat,cat,control,few large,q,q
288,1,289,Block 3,0.7271915999999692,0.1,True,cat,cat,control,many small,q,q
289,1,290,Block 3,1.569652599999927,0.025,True,building,building,control,few large,o,o
290,1,291,Block 3,1.4605013000000326,0.05,True,banana,banana,low,many small,r,r
291,1,292,Block 3,1.325702099999944,0.1,True,bus,bus,high,many small,u,u
292,1,293,Block 3,2.2512013999999,0.025,True,banana,banana,low,many small,r,r
293,1,294,Block 3,1.4958134999999402,0.025,True,banana,banana,high,many small,r,r
294,1,295,Block 3,1.9963979999999992,0.05,False,bus,building,low,many small,o,u
295,1,296,Block 3,0.9178337000000738,0.1,True,building,building,control,few large,o,o
296,1,297,Block 3,0.9975661000000856,0.1,True,firehydrant,firehydrant,control,few large,i,i
297,1,298,Block 3,0.9001283000000058,0.025,True,cat,cat,control,few large,q,q
298,1,299,Block 3,1.5936083999999937,0.025,True,bus,bus,high,few large,u,u
299,1,300,Block 3,1.862325999999939,0.025,True,bird,bird,low,many small,w,w
300,1,301,Block 3,0.9618642000000364,0.1,False,cat,bird,low,many small,w,q
301,1,302,Block 3,1.4366307999998753,0.05,True,tree,tree,control,many small,p,p
302,1,303,Block 3,1.2331729999998515,0.05,True,bird,bird,control,many small,w,w
303,1,304,Block 3,2.1758264999998573,0.1,True,building,building,low,many small,o,o
304,1,305,Block 3,0.8115152999998827,0.025,True,cat,cat,control,many small,q,q
305,1,306,Block 3,2.320916899999929,0.025,False,building,bus,high,few large,u,o
306,1,307,Block 3,0.8320458999999119,0.05,True,tree,tree,control,many small,p,p
307,1,308,Block 3,1.355079299999943,0.025,True,firehydrant,firehydrant,high,few large,i,i
308,1,309,Block 3,0.7650317000000086,0.025,True,tree,tree,low,many small,p,p
309,1,310,Block 3,0.9602992000000086,0.05,True,cat,cat,low,few large,q,q
310,1,311,Block 3,1.23145599999998,0.1,True,bus,bus,control,few large,u,u
311,1,312,Block 3,1.3021492999998827,0.05,True,person,person,low,few large,e,e
312,1,313,Block 3,1.970577299999832,0.1,True,person,person,control,few large,e,e
313,1,314,Block 3,1.3084908000000723,0.05,True,bus,bus,high,few large,u,u
314,1,315,Block 3,1.7075104999998985,0.1,True,bus,bus,high,few large,u,u
315,1,316,Block 3,0.76739160000011,0.025,True,tree,tree,control,few large,p,p
316,1,317,Block 3,1.5223994999998922,0.05,True,building,building,control,many small,o,o
317,1,318,Block 3,0.8728605000001153,0.025,True,building,building,low,few large,o,o
318,1,319,Block 3,0.7052943000001051,0.1,True,tree,tree,control,many small,p,p
319,1,320,Block 3,1.392278000000033,0.05,True,banana,banana,low,few large,r,r
320,1,321,Block 3,1.1246810000000096,0.05,True,bus,bus,low,few large,u,u
321,1,322,Block 3,1.97108940000021,0.025,True,banana,banana,high,few large,r,r
322,1,323,Block 3,1.6210393000001204,0.025,True,building,building,low,many small,o,o
323,1,324,Block 3,1.4434894999999417,0.1,True,bird,bird,control,many small,w,w
324,1,325,Block 3,1.3839181000000735,0.025,False,building,tree,low,many small,p,o
325,1,326,Block 3,1.1423542999998515,0.05,True,person,person,control,few large,e,e
326,1,327,Block 3,1.3842752000000471,0.1,True,building,building,high,few large,o,o
327,1,328,Block 3,0.9500202000001536,0.05,True,tree,tree,high,many small,p,p
328,1,329,Block 3,1.0546340999999302,0.1,True,firehydrant,firehydrant,control,many small,i,i
329,1,330,Block 3,2.2746462999998585,0.025,False,person,tree,control,many small,p,e
330,1,331,Block 3,1.258612200000016,0.1,True,bus,bus,high,many small,u,u
331,1,332,Block 3,1.7786166000000776,0.025,True,bird,bird,low,few large,w,w
332,1,333,Block 3,2.086217300000044,0.025,True,building,building,high,few large,o,o
333,1,334,Block 3,2.219748900000013,0.1,False,cat,bird,high,few large,w,q
334,1,335,Block 3,1.1614375999999993,0.025,True,bird,bird,high,many small,w,w
335,1,336,Block 3,0.9039697999999134,0.1,True,bird,bird,low,few large,w,w
336,1,337,Block 3,1.0970647999999985,0.025,False,banana,bird,high,few large,w,r
337,1,338,Block 3,1.6617612000000008,0.1,True,building,building,low,many small,o,o
338,1,339,Block 3,0.7758258000001206,0.025,True,tree,tree,low,few large,p,p
339,1,340,Block 3,1.105952699999989,0.05,True,bird,bird,low,many small,w,w
340,1,341,Block 3,1.0655762999999752,0.1,True,bus,bus,low,many small,u,u
341,1,342,Block 3,1.125371399999949,0.05,True,person,person,control,many small,e,e
342,1,343,Block 3,2.17674420000003,0.05,False,cat,bird,high,many small,w,q
343,1,344,Block 3,1.0405772999999954,0.025,True,firehydrant,firehydrant,low,few large,i,i
344,1,345,Block 3,1.8352570000001835,0.05,True,bird,bird,low,many small,w,w
345,1,346,Block 3,1.4709408000001076,0.025,False,banana,bird,high,many small,w,r
346,1,347,Block 3,0.831711999999925,0.1,False,banana,bird,low,many small,w,r
347,1,348,Block 3,1.4103520999999546,0.1,True,person,person,high,many small,e,e
348,1,349,Block 3,1.4289002000000437,0.025,True,building,building,low,many small,o,o
349,1,350,Block 3,1.8223477999999889,0.05,False,cat,bird,low,many small,w,q
350,1,351,Block 3,1.3137947999998687,0.1,True,building,building,high,few large,o,o
351,1,352,Block 3,1.057220599999937,0.1,True,cat,cat,control,few large,q,q
352,1,353,Block 3,1.027476100000058,0.05,True,firehydrant,firehydrant,low,many small,i,i
354,1,355,Block 3,1.1575840999998943,0.1,True,bird,bird,high,few large,w,w
355,1,356,Block 3,1.4391321999999036,0.05,False,cat,bird,high,few large,w,q
356,1,357,Block 3,0.865483900000072,0.1,True,bird,bird,low,many small,w,w
357,1,358,Block 3,0.8078831000000264,0.1,True,bird,bird,low,few large,w,w
358,1,359,Block 3,1.4602445000000444,0.05,False,banana,cat,high,few large,q,r
359,1,360,Block 3,1.1663063000000875,0.05,True,bus,bus,control,few large,u,u
360,1,361,Block 3,1.3629940999999235,0.025,True,bird,bird,control,few large,w,w
361,1,362,Block 3,1.084639000000152,0.025,True,tree,tree,low,few large,p,p
362,1,363,Block 3,1.041763800000126,0.05,True,firehydrant,firehydrant,control,few large,i,i
363,1,364,Block 3,1.0613534000001437,0.05,True,bus,bus,control,few large,u,u
364,1,365,Block 3,1.9744413999999324,0.025,True,bird,bird,low,few large,w,w
365,1,366,Block 3,1.2547126000001754,0.025,True,bus,bus,high,many small,u,u
366,1,367,Block 3,1.1424890999999209,0.025,False,person,cat,high,many small,q,e
367,1,368,Block 3,1.0004915000001802,0.05,True,cat,cat,high,many small,q,q
368,1,369,Block 3,1.0424547000000075,0.05,True,tree,tree,high,many small,p,p
369,1,370,Block 3,0.98014790000002,0.1,True,cat,cat,control,few large,q,q
370,1,371,Block 3,1.13455440000007,0.05,True,person,person,low,few large,e,e
371,1,372,Block 3,1.0187208999998347,0.05,True,firehydrant,firehydrant,low,few large,i,i
372,1,373,Block 3,1.3328061999998226,0.05,True,bus,bus,control,many small,u,u
373,1,374,Block 3,1.1356081999999788,0.025,True,building,building,control,few large,o,o
374,1,375,Block 3,1.2612638999999035,0.025,True,banana,banana,control,many small,r,r
375,1,376,Block 3,1.816973499999904,0.05,True,person,person,low,few large,e,e
376,1,377,Block 3,0.9917244999999184,0.1,True,cat,cat,low,many small,q,q
378,1,379,Block 3,0.8658185000001595,0.025,True,cat,cat,control,many small,q,q
379,1,380,Block 3,1.2297839000000297,0.05,True,person,person,control,few large,e,e
380,1,381,Block 3,1.0399336000000403,0.025,True,bird,bird,control,few large,w,w
381,1,382,Block 3,0.8438870999998471,0.05,True,tree,tree,high,many small,p,p
382,1,383,Block 3,0.8220866999999998,0.025,True,tree,tree,low,many small,p,p
383,1,384,Block 3,1.1889082000000144,0.025,True,bird,bird,control,many small,w,w
384,1,385,Block 3,1.5294481999999334,0.1,True,building,building,low,many small,o,o
385,1,386,Block 3,0.9716220000000249,0.1,True,cat,cat,low,many small,q,q
386,1,387,Block 3,1.4027091000000382,0.05,True,banana,banana,low,few large,r,r
387,1,388,Block 3,1.9401206,0.025,False,bird,cat,high,many small,q,w
388,1,389,Block 3,1.158303100000012,0.025,True,building,building,high,many small,o,o
389,1,390,Block 3,0.8445807999999033,0.1,True,cat,cat,control,few large,q,q
390,1,391,Block 3,0.9724723000001632,0.05,True,firehydrant,firehydrant,control,few large,i,i
391,1,392,Block 3,0.8845104999998057,0.025,True,bus,bus,low,few large,u,u
392,1,393,Block 3,0.8469407999998566,0.05,True,cat,cat,high,many small,q,q
393,1,394,Block 3,1.2395911999999498,0.05,True,firehydrant,firehydrant,low,many small,i,i
394,1,395,Block 3,1.0850252000000182,0.05,True,bus,bus,low,few large,u,u
395,1,396,Block 3,1.4170794999999998,0.025,True,banana,banana,control,many small,r,r
396,1,397,Block 3,0.7982882999999674,0.025,True,tree,tree,low,few large,p,p
397,1,398,Block 3,0.7715756000000056,0.05,True,tree,tree,control,many small,p,p
398,1,399,Block 3,0.9425851999999396,0.025,True,firehydrant,firehydrant,control,few large,i,i
399,1,400,Block 3,0.6809052000000975,0.05,True,tree,tree,low,few large,p,p
400,1,401,Block 3,0.7407412999998542,0.05,True,firehydrant,firehydrant,control,few large,i,i
401,1,402,Block 3,0.7919156999998904,0.1,True,cat,cat,high,few large,q,q
402,1,403,Block 3,0.9186584999999924,0.05,True,bus,bus,low,many small,u,u
403,1,404,Block 3,0.8672953999998754,0.1,True,cat,cat,low,many small,q,q
404,1,405,Block 3,0.977107100000012,0.1,True,building,building,low,few large,o,o
405,1,406,Block 3,0.9727202000001398,0.1,True,banana,banana,control,few large,r,r
406,1,407,Block 3,1.166104099999984,0.05,False,bird,cat,low,few large,q,w
407,1,408,Block 3,1.136872500000209,0.1,False,building,firehydrant,control,many small,i,o
408,1,409,Block 3,1.4410189000000173,0.05,False,bus,building,high,many small,o,u
409,1,410,Block 3,1.7792011000001366,0.05,True,banana,banana,high,many small,r,r
410,1,411,Block 3,0.9789141999999628,0.1,True,firehydrant,firehydrant,low,many small,i,i
411,1,412,Block 3,0.8111936999998761,0.05,True,cat,cat,control,few large,q,q
412,1,413,Block 3,0.9529939000001376,0.05,True,person,person,control,many small,e,e
413,1,414,Block 3,1.5602232000001095,0.025,True,banana,banana,low,many small,r,r
414,1,415,Block 3,2.3323946000000437,0.05,True,banana,banana,high,many small,r,r
415,1,416,Block 3,1.3336360000000695,0.05,True,firehydrant,firehydrant,low,many small,i,i
416,1,417,Block 3,1.1780518000000484,0.1,True,bird,bird,control,many small,w,w
417,1,418,Block 3,1.0596439000000828,0.025,True,bus,bus,control,few large,u,u
418,1,419,Block 3,0.756653500000084,0.05,True,tree,tree,high,few large,p,p
419,1,420,Block 3,1.032569700000067,0.1,True,firehydrant,firehydrant,low,few large,i,i
420,1,421,Block 3,1.2842912999999498,0.025,True,firehydrant,firehydrant,low,many small,i,i
421,1,422,Block 3,1.4117125000000217,0.025,True,bus,bus,high,many small,u,u
422,1,423,Block 3,1.5325459000000592,0.1,False,banana,bus,high,many small,u,r
423,1,424,Block 3,0.6812724000001253,0.05,True,tree,tree,control,many small,p,p
424,1,425,Block 3,1.2578535000000102,0.025,True,bus,bus,low,many small,u,u
425,1,426,Block 3,1.1903456999998523,0.05,True,person,person,low,many small,e,e
426,1,427,Block 3,1.1288393999998334,0.1,True,banana,banana,control,many small,r,r
427,1,428,Block 3,1.788266300000032,0.025,True,bird,bird,low,many small,w,w
428,1,429,Block 3,0.8068657000001167,0.05,True,tree,tree,low,many small,p,p
429,1,430,Block 3,1.033021600000211,0.1,True,building,building,low,many small,o,o
430,1,431,Block 3,1.0145866000000296,0.05,True,banana,banana,control,many small,r,r
431,1,432,Block 3,1.8113524000000325,0.1,False,banana,firehydrant,low,many small,i,r
432,1,433,Block 4,1.079626499999904,0.05,True,banana,banana,high,few large,r,r
433,1,434,Block 4,0.8465208999998595,0.025,True,cat,cat,high,few large,q,q
434,1,435,Block 4,1.3974081999999726,0.025,False,banana,bird,high,many small,w,r
435,1,436,Block 4,1.0854639000001498,0.1,True,bus,bus,control,few large,u,u
436,1,437,Block 4,0.6951375000001008,0.1,True,tree,tree,low,few large,p,p
437,1,438,Block 4,1.8650190000000748,0.1,True,building,building,high,few large,o,o
438,1,439,Block 4,0.7806116000001566,0.025,True,cat,cat,low,few large,q,q
439,1,440,Block 4,1.3895387999996274,0.1,True,person,person,high,many small,e,e
440,1,441,Block 4,1.561714599999959,0.025,False,building,bus,high,few large,u,o
441,1,442,Block 4,0.6874465999999302,0.05,True,cat,cat,low,many small,q,q
442,1,443,Block 4,0.9464404999998806,0.05,True,firehydrant,firehydrant,control,few large,i,i
443,1,444,Block 4,1.1785581999997703,0.1,True,person,person,high,few large,e,e
444,1,445,Block 4,1.0503820999997515,0.1,True,firehydrant,firehydrant,low,few large,i,i
445,1,446,Block 4,1.1120409999998628,0.1,True,building,building,high,few large,o,o
446,1,447,Block 4,0.7551345000001675,0.05,True,bus,bus,control,many small,u,u
447,1,448,Block 4,2.242583199999899,0.05,True,banana,banana,low,many small,r,r
448,1,449,Block 4,1.141555100000005,0.05,True,person,person,low,few large,e,e
449,1,450,Block 4,1.0093533000003845,0.05,True,banana,banana,control,few large,r,r
450,1,451,Block 4,1.0419143999997686,0.1,True,person,person,high,many small,e,e
451,1,452,Block 4,1.1972741999998109,0.1,True,firehydrant,firehydrant,control,many small,i,i
452,1,453,Block 4,1.6869649999998728,0.025,True,firehydrant,firehydrant,high,many small,i,i
453,1,454,Block 4,1.535196100000121,0.05,True,firehydrant,firehydrant,high,few large,i,i
454,1,455,Block 4,1.13596490000009,0.1,True,bird,bird,control,few large,w,w
455,1,456,Block 4,0.7367576999999983,0.025,True,tree,tree,control,many small,p,p
456,1,457,Block 4,1.0203315000003386,0.025,True,bus,bus,control,few large,u,u
457,1,458,Block 4,0.6533467999997811,0.1,True,tree,tree,high,few large,p,p
458,1,459,Block 4,1.2679904999999962,0.025,True,bird,bird,control,few large,w,w
459,1,460,Block 4,1.2454654000002847,0.05,True,bird,bird,high,many small,w,w
460,1,461,Block 4,0.9042986999997992,0.05,True,bird,bird,high,few large,w,w
461,1,462,Block 4,1.0372670000001565,0.1,True,bus,bus,control,many small,u,u
462,1,463,Block 4,0.9190192999999454,0.05,True,building,building,low,few large,o,o
463,1,464,Block 4,0.6625340000000506,0.025,True,tree,tree,low,many small,p,p
464,1,465,Block 4,0.8467798000001494,0.1,False,bird,cat,low,many small,q,w
465,1,466,Block 4,0.7416548999999577,0.1,True,bird,bird,high,few large,w,w
466,1,467,Block 4,0.5959917999998652,0.05,True,bird,bird,control,few large,w,w
467,1,468,Block 4,1.0538754000003792,0.025,True,firehydrant,firehydrant,low,few large,i,i
468,1,469,Block 4,0.9048054999998384,0.025,False,cat,bird,high,many small,w,q
469,1,470,Block 4,0.7761405000001105,0.05,True,bird,bird,control,few large,w,w
470,1,471,Block 4,0.7225528000003578,0.1,True,tree,tree,high,few large,p,p
471,1,472,Block 4,0.6857689999997092,0.05,True,tree,tree,low,many small,p,p
472,1,473,Block 4,1.1862129000001005,0.05,True,firehydrant,firehydrant,high,few large,i,i
473,1,474,Block 4,0.6977727999997114,0.05,True,firehydrant,firehydrant,low,many small,i,i
474,1,475,Block 4,0.8476234999998269,0.1,True,cat,cat,low,many small,q,q
475,1,476,Block 4,0.9126390999999784,0.1,True,bird,bird,control,many small,w,w
476,1,477,Block 4,1.1927878999999848,0.025,False,banana,tree,high,many small,p,r
477,1,478,Block 4,0.5871330999998463,0.1,True,cat,cat,control,few large,q,q
478,1,479,Block 4,1.3419754999999896,0.1,False,banana,bird,high,few large,w,r
479,1,480,Block 4,0.8099503000003097,0.1,True,person,person,control,few large,e,e
480,1,481,Block 4,1.001690300000064,0.05,True,firehydrant,firehydrant,control,many small,i,i
481,1,482,Block 4,1.1438762000002498,0.025,True,firehydrant,firehydrant,control,many small,i,i
482,1,483,Block 4,0.6973179000001437,0.05,True,tree,tree,low,many small,p,p
483,1,484,Block 4,1.698678100000052,0.1,False,bird,cat,high,many small,q,w
484,1,485,Block 4,1.0691720999998324,0.1,True,bird,bird,high,many small,w,w
485,1,486,Block 4,1.097816099999818,0.05,True,banana,banana,low,many small,r,r
486,1,487,Block 4,0.9586393999998108,0.05,True,person,person,high,many small,e,e
487,1,488,Block 4,1.683619599999929,0.025,True,building,building,low,few large,o,o
488,1,489,Block 4,1.0314127000001465,0.1,True,bird,bird,low,few large,w,w
489,1,490,Block 4,0.9031413000002432,0.025,True,firehydrant,firehydrant,control,many small,i,i
490,1,491,Block 4,1.049612999999681,0.1,True,firehydrant,firehydrant,high,many small,i,i
491,1,492,Block 4,0.6040023000000474,0.1,True,firehydrant,firehydrant,control,few large,i,i
492,1,493,Block 4,0.7303679000001466,0.1,True,bird,bird,control,few large,w,w
493,1,494,Block 4,0.7201881999999387,0.1,True,firehydrant,firehydrant,low,many small,i,i
494,1,495,Block 4,0.5547700000001896,0.025,True,firehydrant,firehydrant,high,few large,i,i
495,1,496,Block 4,0.5265106000001651,0.1,True,firehydrant,firehydrant,control,few large,i,i
496,1,497,Block 4,0.8963721999998597,0.05,True,person,person,high,few large,e,e
497,1,498,Block 4,1.7915252999996485,0.025,True,banana,banana,low,few large,r,r
498,1,499,Block 4,0.6661973999998736,0.1,True,tree,tree,control,few large,p,p
499,1,500,Block 4,0.7594096999996509,0.025,False,cat,tree,high,few large,p,q
500,1,501,Block 4,0.8519584999999097,0.1,True,firehydrant,firehydrant,low,many small,i,i
501,1,502,Block 4,0.6814964000000145,0.025,True,tree,tree,high,many small,p,p
502,1,503,Block 4,1.2324393999997485,0.05,False,building,firehydrant,high,few large,i,o
503,1,504,Block 4,1.112771000000066,0.025,True,bird,bird,control,many small,w,w
504,1,505,Block 4,0.9114480000002914,0.1,True,banana,banana,low,few large,r,r
505,1,506,Block 4,1.3144815999999082,0.025,False,cat,banana,low,few large,r,q
506,1,507,Block 4,0.779773700000078,0.025,True,cat,cat,high,few large,q,q
507,1,508,Block 4,1.7212091000001235,0.025,False,bird,firehydrant,high,many small,i,w
508,1,509,Block 4,1.10306780000019,0.1,True,bus,bus,high,many small,u,u
509,1,510,Block 4,1.0068114999999125,0.05,True,building,building,high,many small,o,o
510,1,511,Block 4,0.9668732000000092,0.1,True,firehydrant,firehydrant,control,many small,i,i
511,1,512,Block 4,1.1079764000000978,0.1,True,bus,bus,low,few large,u,u
512,1,513,Block 4,0.6472372000002906,0.1,True,tree,tree,control,few large,p,p
513,1,514,Block 4,1.76464470000019,0.05,True,bus,bus,high,few large,u,u
514,1,515,Block 4,0.8626056999996763,0.025,True,cat,cat,low,few large,q,q
515,1,516,Block 4,0.8784229999996569,0.025,True,cat,cat,control,many small,q,q
516,1,517,Block 4,0.9850498999999218,0.1,True,bus,bus,low,many small,u,u
517,1,518,Block 4,1.0494975000001432,0.025,True,banana,banana,control,few large,r,r
518,1,519,Block 4,1.175442999999632,0.1,True,building,building,low,many small,o,o
519,1,520,Block 4,0.8639091000000008,0.1,True,bus,bus,low,few large,u,u
520,1,521,Block 4,0.7072160000002441,0.1,True,firehydrant,firehydrant,control,many small,i,i
521,1,522,Block 4,1.1357312000000093,0.1,False,bird,person,low,many small,e,w
522,1,523,Block 4,1.6917828000000554,0.1,True,bird,bird,low,many small,w,w
523,1,524,Block 4,0.8277118000000883,0.05,True,tree,tree,low,many small,p,p
524,1,525,Block 4,0.8761784999996962,0.025,True,tree,tree,low,few large,p,p
525,1,526,Block 4,1.1079617000000326,0.025,True,building,building,high,many small,o,o
526,1,527,Block 4,0.9378886999998032,0.025,False,bus,building,high,few large,o,u
527,1,528,Block 4,0.85887270000012,0.025,True,person,person,control,few large,e,e
528,1,529,Block 4,0.7615034000000378,0.05,True,cat,cat,control,many small,q,q
529,1,530,Block 4,0.9933092999999644,0.025,True,cat,cat,low,few large,q,q
530,1,531,Block 4,0.891193999999814,0.05,True,firehydrant,firehydrant,low,many small,i,i
531,1,532,Block 4,1.0607208000001265,0.1,True,bus,bus,low,few large,u,u
532,1,533,Block 4,0.9915004999998018,0.05,True,person,person,high,many small,e,e
533,1,534,Block 4,0.7230059000003166,0.025,True,cat,cat,low,many small,q,q
534,1,535,Block 4,0.915231500000118,0.025,True,firehydrant,firehydrant,low,many small,i,i
535,1,536,Block 4,1.943004799999926,0.05,True,bird,bird,low,many small,w,w
536,1,537,Block 4,0.920971400000326,0.1,True,bus,bus,high,few large,u,u
537,1,538,Block 4,0.7012669000000642,0.1,True,bus,bus,high,few large,u,u
538,1,539,Block 4,0.6826950999998189,0.1,True,cat,cat,low,few large,q,q
539,1,540,Block 4,1.3873877999999422,0.025,True,banana,banana,high,few large,r,r
540,1,541,Block 4,1.7081653999998707,0.025,False,person,cat,high,many small,q,e
541,1,542,Block 4,1.6158061999999518,0.05,True,building,building,high,few large,o,o
542,1,543,Block 4,0.8851413999996112,0.025,True,banana,banana,control,few large,r,r
543,1,544,Block 4,1.53547669999989,0.1,True,building,building,high,few large,o,o
544,1,545,Block 4,1.0365191999999297,0.05,True,person,person,control,few large,e,e
545,1,546,Block 4,1.0117744000003768,0.1,True,firehydrant,firehydrant,high,few large,i,i
546,1,547,Block 4,1.0901779999999237,0.05,True,banana,banana,low,few large,r,r
547,1,548,Block 4,0.8466859999998633,0.05,True,person,person,control,few large,e,e
548,1,549,Block 4,0.9919180000001688,0.05,True,banana,banana,low,few large,r,r
549,1,550,Block 4,0.6707393000001503,0.05,True,cat,cat,high,few large,q,q
550,1,551,Block 4,1.1734879000000549,0.1,True,bird,bird,high,many small,w,w
551,1,552,Block 4,0.5190271999999823,0.1,True,cat,cat,control,few large,q,q
552,1,553,Block 4,0.8752406000003248,0.025,True,firehydrant,firehydrant,low,few large,i,i
553,1,554,Block 4,1.2844502000002649,0.05,False,bird,cat,high,few large,q,w
554,1,555,Block 4,1.0463153000000602,0.1,True,bus,bus,high,many small,u,u
555,1,556,Block 4,0.7238258000002133,0.1,True,tree,tree,low,many small,p,p
556,1,557,Block 4,0.8936757999999827,0.1,True,firehydrant,firehydrant,control,few large,i,i
557,1,558,Block 4,1.1132008999998106,0.05,True,banana,banana,high,few large,r,r
558,1,559,Block 4,1.2594621000002917,0.1,True,firehydrant,firehydrant,high,many small,i,i
559,1,560,Block 4,0.6981375000000298,0.1,True,tree,tree,low,many small,p,p
560,1,561,Block 4,1.199854499999674,0.05,True,bird,bird,low,many small,w,w
561,1,562,Block 4,1.554731300000185,0.1,False,person,firehydrant,high,few large,i,e
562,1,563,Block 4,0.9666251000003284,0.025,True,firehydrant,firehydrant,high,many small,i,i
563,1,564,Block 4,1.049217400000089,0.025,True,banana,banana,control,few large,r,r
564,1,565,Block 4,1.24300170000015,0.1,True,cat,cat,high,many small,q,q
565,1,566,Block 4,1.1313036999999897,0.1,False,banana,bird,high,many small,w,r
566,1,567,Block 4,1.1048507999998949,0.1,True,banana,banana,high,few large,r,r
567,1,568,Block 4,0.9640736000001198,0.1,True,building,building,control,few large,o,o
568,1,569,Block 4,0.7492036000003282,0.025,True,firehydrant,firehydrant,low,many small,i,i
569,1,570,Block 4,0.8128403999999136,0.1,True,building,building,control,few large,o,o
570,1,571,Block 4,0.9362173000004076,0.025,True,banana,banana,control,few large,r,r
571,1,572,Block 4,0.8383195000001251,0.025,True,banana,banana,high,few large,r,r
572,1,573,Block 4,1.1780476999997518,0.1,True,person,person,high,few large,e,e
573,1,574,Block 4,1.4126037999999426,0.025,False,firehydrant,bus,control,many small,u,i
574,1,575,Block 4,1.2103006000002097,0.025,False,bird,cat,low,many small,q,w
575,1,576,Block 4,1.1033269999998083,0.1,True,bus,bus,high,few large,u,u
576,1,577,Block 5,0.8134793999997783,0.025,True,bus,bus,control,many small,u,u
577,1,578,Block 5,0.761486800000057,0.1,True,tree,tree,low,many small,p,p
578,1,579,Block 5,1.5251841000003878,0.025,True,person,person,high,many small,e,e
579,1,580,Block 5,2.170681699999932,0.025,True,building,building,low,few large,o,o
580,1,581,Block 5,0.7124042999998892,0.05,True,tree,tree,high,few large,p,p
581,1,582,Block 5,1.0463823000000048,0.1,True,person,person,control,many small,e,e
582,1,583,Block 5,2.3117283999999927,0.1,True,tree,tree,control,many small,p,p
583,1,584,Block 5,1.008783499999936,0.05,False,banana,tree,low,few large,p,r
584,1,585,Block 5,0.7517061000003196,0.1,True,tree,tree,high,many small,p,p
585,1,586,Block 5,0.9262417999998434,0.1,True,firehydrant,firehydrant,low,few large,i,i
586,1,587,Block 5,1.0992910999998458,0.1,True,bus,bus,low,few large,u,u
587,1,588,Block 5,2.093822999999702,0.1,True,person,person,low,many small,e,e
588,1,589,Block 5,0.8431614000000991,0.1,True,banana,banana,low,few large,r,r
589,1,590,Block 5,1.183588200000031,0.05,True,bus,bus,high,many small,u,u
590,1,591,Block 5,0.7777375000000575,0.05,True,tree,tree,control,many small,p,p
591,1,592,Block 5,0.9046524000000318,0.05,True,building,building,control,few large,o,o
592,1,593,Block 5,0.6895376999996188,0.025,False,bus,building,low,many small,o,u
593,1,594,Block 5,0.8061926000000312,0.1,False,banana,tree,high,many small,p,r
594,1,595,Block 5,0.7371517999999924,0.025,True,tree,tree,control,few large,p,p
595,1,596,Block 5,0.9930453000001762,0.05,True,person,person,low,few large,e,e
596,1,597,Block 5,1.085934400000042,0.05,True,banana,banana,control,many small,r,r
597,1,598,Block 5,0.9713012999995954,0.025,True,bus,bus,control,many small,u,u
598,1,599,Block 5,1.071410200000173,0.05,True,firehydrant,firehydrant,high,few large,i,i
599,1,600,Block 5,1.1650488999998745,0.025,True,person,person,low,few large,e,e
600,1,601,Block 5,1.135896600000251,0.025,True,firehydrant,firehydrant,low,few large,i,i
601,1,602,Block 5,0.7375851000001603,0.05,True,firehydrant,firehydrant,control,few large,i,i
602,1,603,Block 5,0.7127623999999741,0.1,True,cat,cat,control,few large,q,q
603,1,604,Block 5,1.3528538999999,0.025,False,person,firehydrant,high,few large,i,e
605,1,606,Block 5,1.2963088999999854,0.05,True,banana,banana,low,few large,r,r
606,1,607,Block 5,1.11939029999985,0.1,True,firehydrant,firehydrant,high,few large,i,i
607,1,608,Block 5,0.96429900000021,0.1,True,banana,banana,control,few large,r,r
608,1,609,Block 5,1.5279680999997254,0.025,True,building,building,control,few large,o,o
609,1,610,Block 5,1.0128381999998055,0.1,False,person,bird,low,many small,w,e
610,1,611,Block 5,1.3538836000002448,0.05,True,person,person,low,many small,e,e
611,1,612,Block 5,1.7038777999996455,0.025,True,person,person,high,few large,e,e
612,1,613,Block 5,0.9460531999998238,0.05,True,person,person,low,few large,e,e
613,1,614,Block 5,1.0284145999999057,0.025,True,bus,bus,low,many small,u,u
614,1,615,Block 5,0.7266916000003221,0.1,True,cat,cat,control,many small,q,q
615,1,616,Block 5,1.20229130000007,0.05,True,building,building,low,few large,o,o
616,1,617,Block 5,0.7839162000000215,0.025,True,building,building,low,few large,o,o
617,1,618,Block 5,0.6869986000001518,0.025,True,cat,cat,control,few large,q,q
618,1,619,Block 5,0.8425987999999052,0.1,True,tree,tree,low,many small,p,p
619,1,620,Block 5,1.0030173000000104,0.05,True,banana,banana,control,many small,r,r
620,1,621,Block 5,0.9881062999997994,0.025,True,bird,bird,low,few large,w,w
621,1,622,Block 5,0.979601200000161,0.05,True,firehydrant,firehydrant,control,many small,i,i
622,1,623,Block 5,1.4012742999998409,0.05,True,building,building,control,many small,o,o
623,1,624,Block 5,1.075645600000371,0.025,True,person,person,low,few large,e,e
624,1,625,Block 5,1.0685911000000488,0.1,False,bird,tree,low,few large,p,w
625,1,626,Block 5,1.2589825999998538,0.05,True,bus,bus,control,many small,u,u
626,1,627,Block 5,0.7991316000002371,0.025,True,tree,tree,high,few large,p,p
627,1,628,Block 5,1.762959299999693,0.025,True,bird,bird,control,many small,w,w
628,1,629,Block 5,1.2801742999999988,0.025,True,cat,cat,low,many small,q,q
629,1,630,Block 5,1.0026275000000169,0.1,True,firehydrant,firehydrant,low,few large,i,i
630,1,631,Block 5,0.9533667000000604,0.1,True,person,person,control,many small,e,e
631,1,632,Block 5,1.3264358999999786,0.025,False,bird,banana,high,many small,r,w
632,1,633,Block 5,0.9134024999998474,0.1,True,bird,bird,low,few large,w,w
633,1,634,Block 5,1.101894800000082,0.05,True,firehydrant,firehydrant,high,few large,i,i
634,1,635,Block 5,2.013513899999907,0.05,False,banana,cat,low,many small,q,r
635,1,636,Block 5,1.7382244000000355,0.1,True,firehydrant,firehydrant,control,many small,i,i
636,1,637,Block 5,1.082578800000192,0.05,True,building,building,high,few large,o,o
637,1,638,Block 5,1.621617000000242,0.05,False,building,tree,control,many small,p,o
638,1,639,Block 5,2.0816211999999723,0.1,True,bird,bird,high,many small,w,w
639,1,640,Block 5,0.7718097000001762,0.05,True,tree,tree,low,few large,p,p
640,1,641,Block 5,1.4306477999998606,0.05,True,banana,banana,high,few large,r,r
641,1,642,Block 5,0.8871373000001768,0.05,True,banana,banana,low,few large,r,r
642,1,643,Block 5,0.7358391000002484,0.05,True,cat,cat,high,few large,q,q
643,1,644,Block 5,0.7344200000002274,0.05,True,tree,tree,control,many small,p,p
644,1,645,Block 5,1.3241715999997723,0.025,True,person,person,high,few large,e,e
645,1,646,Block 5,1.7979284000002735,0.05,True,bird,bird,control,many small,w,w
646,1,647,Block 5,1.5181680000000597,0.025,False,bird,tree,high,few large,p,w
647,1,648,Block 5,1.0469652000001588,0.025,True,cat,cat,control,many small,q,q
648,1,649,Block 5,0.9105741999997008,0.025,True,banana,banana,high,few large,r,r
649,1,650,Block 5,1.223749200000384,0.025,True,building,building,control,few large,o,o
650,1,651,Block 5,1.0686832999999751,0.05,True,banana,banana,low,many small,r,r
651,1,652,Block 5,1.3274569000000156,0.05,True,firehydrant,firehydrant,control,many small,i,i
652,1,653,Block 5,1.4969467000000805,0.05,True,building,building,low,few large,o,o
653,1,654,Block 5,1.0233996000001753,0.025,True,bus,bus,control,few large,u,u
654,1,655,Block 5,0.8866645000002791,0.05,True,bus,bus,low,few large,u,u
655,1,656,Block 5,0.6647219999999834,0.1,True,bus,bus,high,few large,u,u
656,1,657,Block 5,0.933195699999942,0.1,True,person,person,control,few large,e,e
657,1,658,Block 5,1.1674384000002649,0.05,True,bird,bird,low,many small,w,w
658,1,659,Block 5,0.9127462999999808,0.025,True,bus,bus,low,few large,u,u
659,1,660,Block 5,1.6557966000000306,0.1,False,firehydrant,person,high,many small,e,i
660,1,661,Block 5,1.303696100000252,0.05,True,bus,bus,control,few large,u,u
661,1,662,Block 5,0.9474528999999166,0.025,True,person,person,control,many small,e,e
662,1,663,Block 5,0.99000580000029,0.025,True,cat,cat,control,few large,q,q
663,1,664,Block 5,0.8605630000001838,0.025,True,tree,tree,low,few large,p,p
664,1,665,Block 5,0.984347600000092,0.05,True,bird,bird,control,few large,w,w
665,1,666,Block 5,1.0139352999999574,0.025,True,firehydrant,firehydrant,control,many small,i,i
666,1,667,Block 5,1.025093900000229,0.05,True,firehydrant,firehydrant,high,many small,i,i
667,1,668,Block 5,0.8853420000000369,0.1,True,cat,cat,control,many small,q,q
668,1,669,Block 5,1.2591370999998617,0.025,True,bus,bus,low,many small,u,u
669,1,670,Block 5,0.9915878000001612,0.1,True,building,building,low,few large,o,o
670,1,671,Block 5,1.0342481000002408,0.05,True,person,person,high,few large,e,e
671,1,672,Block 5,1.2818216999999097,0.1,False,banana,bird,high,many small,w,r
672,1,673,Block 5,0.8977856000001339,0.025,True,bird,bird,control,few large,w,w
673,1,674,Block 5,0.9942730000002484,0.025,False,cat,tree,low,many small,p,q
674,1,675,Block 5,0.7815854999998919,0.025,True,person,person,low,few large,e,e
675,1,676,Block 5,0.9485704999997324,0.05,True,bus,bus,control,many small,u,u
676,1,677,Block 5,0.7649541000000681,0.05,True,cat,cat,control,few large,q,q
677,1,678,Block 5,1.4920505000000048,0.05,True,bird,bird,low,many small,w,w
678,1,679,Block 5,0.8528274999998757,0.1,True,banana,banana,low,few large,r,r
679,1,680,Block 5,1.308495000000221,0.1,True,bus,bus,low,many small,u,u
680,1,681,Block 5,1.661352099999931,0.05,False,person,bus,high,many small,u,e
681,1,682,Block 5,0.8974748999999065,0.025,True,firehydrant,firehydrant,low,many small,i,i
682,1,683,Block 5,0.858695699999771,0.05,True,banana,banana,control,many small,r,r
683,1,684,Block 5,0.8498248000000785,0.025,True,person,person,high,few large,e,e
684,1,685,Block 5,0.8193242000002101,0.1,True,tree,tree,control,many small,p,p
685,1,686,Block 5,0.7484899000000951,0.05,True,firehydrant,firehydrant,low,few large,i,i
686,1,687,Block 5,0.9161558000000696,0.05,True,banana,banana,low,few large,r,r
687,1,688,Block 5,0.920458399999916,0.05,True,banana,banana,low,many small,r,r
688,1,689,Block 5,0.9799057000000176,0.1,True,person,person,low,many small,e,e
689,1,690,Block 5,1.1257390000000669,0.1,True,bus,bus,high,few large,u,u
690,1,691,Block 5,0.9889743999997336,0.1,True,person,person,high,many small,e,e
691,1,692,Block 5,1.5570237000001723,0.1,True,cat,cat,low,few large,q,q
692,1,693,Block 5,1.049657300000035,0.1,True,bus,bus,low,few large,u,u
693,1,694,Block 5,2.100849900000412,0.025,True,building,building,low,few large,o,o
694,1,695,Block 5,1.6641300999999658,0.1,True,person,person,low,many small,e,e
695,1,696,Block 5,1.176800600000206,0.025,False,building,bus,high,few large,u,o
696,1,697,Block 5,1.0928036000000247,0.1,True,person,person,high,many small,e,e
697,1,698,Block 5,1.1686988000001293,0.025,True,bus,bus,high,few large,u,u
698,1,699,Block 5,1.062764700000116,0.025,True,person,person,low,many small,e,e
699,1,700,Block 5,0.7098103000002993,0.025,True,tree,tree,control,few large,p,p
700,1,701,Block 5,1.1183630999998968,0.025,True,bird,bird,low,few large,w,w
701,1,702,Block 5,2.2748968999999306,0.05,False,banana,tree,high,many small,p,r
702,1,703,Block 5,0.947958700000072,0.05,True,bus,bus,control,many small,u,u
703,1,704,Block 5,0.9876451000000088,0.025,True,building,building,control,many small,o,o
704,1,705,Block 5,1.542714999999589,0.05,False,firehydrant,building,high,many small,o,i
705,1,706,Block 5,0.9895056000000296,0.1,True,banana,banana,high,many small,r,r
706,1,707,Block 5,1.8865172000000712,0.05,True,building,building,control,few large,o,o
707,1,708,Block 5,1.8338477000002056,0.025,False,firehydrant,building,high,many small,o,i
708,1,709,Block 5,0.8693443000001935,0.025,True,tree,tree,low,many small,p,p
709,1,710,Block 5,1.8025766000000656,0.025,True,banana,banana,high,few large,r,r
710,1,711,Block 5,0.7458220999997138,0.1,True,tree,tree,high,many small,p,p
711,1,712,Block 5,1.5287496999999348,0.1,False,firehydrant,banana,high,many small,r,i
712,1,713,Block 5,1.0209399000000303,0.025,True,banana,banana,control,few large,r,r
713,1,714,Block 5,1.158981500000209,0.1,True,bird,bird,control,few large,w,w
714,1,715,Block 5,0.7954675999999381,0.05,True,tree,tree,control,few large,p,p
715,1,716,Block 5,2.352715999999873,0.1,True,firehydrant,firehydrant,high,few large,i,i
716,1,717,Block 5,1.0129603000000316,0.1,True,bus,bus,control,many small,u,u
717,1,718,Block 5,1.432213299999603,0.1,True,person,person,control,few large,e,e
718,1,719,Block 5,1.068126900000152,0.025,True,bus,bus,low,many small,u,u
719,1,720,Block 5,2.014321399999972,0.05,False,firehydrant,bus,high,many small,u,i
720,1,721,Block 6,0.7428922999997667,0.025,True,bus,bus,low,many small,u,u
721,1,722,Block 6,0.9427284999997028,0.1,True,cat,cat,low,many small,q,q
722,1,723,Block 6,0.6669455000001108,0.05,True,cat,cat,control,many small,q,q
723,1,724,Block 6,1.750731900000119,0.025,True,building,building,low,few large,o,o
724,1,725,Block 6,1.2861328000003596,0.025,True,firehydrant,firehydrant,high,few large,i,i
725,1,726,Block 6,0.9059231999999612,0.1,True,banana,banana,control,few large,r,r
726,1,727,Block 6,1.065980700000182,0.025,True,banana,banana,low,few large,r,r
727,1,728,Block 6,1.2242557999998098,0.1,False,building,bus,high,many small,u,o
728,1,729,Block 6,0.9878857000003336,0.05,False,bird,cat,high,many small,q,w
729,1,730,Block 6,1.504068300000199,0.1,True,cat,cat,control,many small,q,q
730,1,731,Block 6,1.0134656999998697,0.05,True,firehydrant,firehydrant,high,many small,i,i
731,1,732,Block 6,0.9924863999999616,0.025,True,person,person,control,many small,e,e
732,1,733,Block 6,1.2334371000001738,0.05,True,cat,cat,low,few large,q,q
733,1,734,Block 6,1.1072997999999643,0.1,True,building,building,low,many small,o,o
734,1,735,Block 6,1.5753904000002876,0.05,True,bird,bird,high,many small,w,w
735,1,736,Block 6,0.734423699999752,0.1,True,tree,tree,low,few large,p,p
736,1,737,Block 6,1.253049600000395,0.05,True,bird,bird,high,few large,w,w
737,1,738,Block 6,0.9590318999999,0.025,True,bus,bus,control,few large,u,u
738,1,739,Block 6,1.0921658999995998,0.1,True,banana,banana,high,few large,r,r
739,1,740,Block 6,1.231460900000002,0.05,True,firehydrant,firehydrant,low,few large,i,i
740,1,741,Block 6,1.6859801999999036,0.05,False,bird,cat,high,few large,q,w
741,1,742,Block 6,0.772707299999638,0.1,True,cat,cat,low,few large,q,q
742,1,743,Block 6,1.2246166999998422,0.1,True,bus,bus,high,few large,u,u
743,1,744,Block 6,0.7155763999999181,0.05,True,bus,bus,low,few large,u,u
744,1,745,Block 6,1.0754254999997102,0.1,True,person,person,control,few large,e,e
745,1,746,Block 6,2.057489199999964,0.05,True,person,person,high,many small,e,e
746,1,747,Block 6,1.110334800000146,0.1,True,banana,banana,control,few large,r,r
747,1,748,Block 6,0.7456873000000996,0.05,True,cat,cat,control,few large,q,q
748,1,749,Block 6,0.8003444000000854,0.05,True,cat,cat,low,many small,q,q
749,1,750,Block 6,0.970547500000066,0.025,True,bus,bus,control,few large,u,u
750,1,751,Block 6,1.895117300000038,0.025,True,banana,banana,high,many small,r,r
751,1,752,Block 6,0.9787070999996104,0.025,True,bird,bird,control,few large,w,w
752,1,753,Block 6,1.0102504999999835,0.025,True,person,person,control,many small,e,e
753,1,754,Block 6,1.0153301000000283,0.1,True,banana,banana,low,few large,r,r
754,1,755,Block 6,1.280986799999937,0.1,True,banana,banana,low,few large,r,r
755,1,756,Block 6,0.8706859999997505,0.05,True,banana,banana,high,few large,r,r
756,1,757,Block 6,1.8625295000001645,0.1,True,bird,bird,control,many small,w,w
757,1,758,Block 6,1.2783106999995653,0.025,True,tree,tree,high,many small,p,p
758,1,759,Block 6,1.7435457999999926,0.05,False,person,firehydrant,low,many small,i,e
759,1,760,Block 6,1.6643325999998524,0.1,False,person,firehydrant,high,many small,i,e
760,1,761,Block 6,0.9046378999996704,0.05,True,cat,cat,low,many small,q,q
761,1,762,Block 6,1.9469671000001652,0.05,True,bird,bird,high,many small,w,w
762,1,763,Block 6,1.1068931999998313,0.05,True,cat,cat,low,few large,q,q
763,1,764,Block 6,0.9980291000001672,0.05,True,person,person,high,few large,e,e
764,1,765,Block 6,1.5608950000000732,0.025,True,banana,banana,high,few large,r,r
765,1,766,Block 6,2.327986900000269,0.025,True,person,person,low,many small,e,e
766,1,767,Block 6,0.82910609999999,0.025,True,cat,cat,low,many small,q,q
767,1,768,Block 6,1.0705649999999878,0.025,True,person,person,low,many small,e,e
768,1,769,Block 6,0.9114432999999736,0.1,True,banana,banana,high,many small,r,r
769,1,770,Block 6,1.0590256000000409,0.025,False,banana,person,high,many small,e,r
770,1,771,Block 6,1.1722944000002826,0.05,True,bus,bus,low,few large,u,u
771,1,772,Block 6,0.8210570999999618,0.025,True,cat,cat,control,many small,q,q
772,1,773,Block 6,0.9691941000000952,0.1,True,banana,banana,high,few large,r,r
773,1,774,Block 6,0.9763126000002558,0.1,True,bus,bus,high,many small,u,u
774,1,775,Block 6,0.6872868000000381,0.1,True,cat,cat,high,few large,q,q
775,1,776,Block 6,1.6522507999998195,0.05,True,building,building,high,few large,o,o
776,1,777,Block 6,2.049120600000151,0.025,False,cat,building,high,many small,o,q
777,1,778,Block 6,0.8730458999998518,0.1,True,cat,cat,high,many small,q,q
778,1,779,Block 6,1.0199477000001025,0.1,False,bird,cat,high,many small,q,w
779,1,780,Block 6,0.8975324000002729,0.025,True,banana,banana,low,few large,r,r
780,1,781,Block 6,1.060079500000029,0.05,True,bird,bird,control,many small,w,w
781,1,782,Block 6,0.8330096999998204,0.05,True,cat,cat,control,many small,q,q
782,1,783,Block 6,0.887828499999614,0.1,True,tree,tree,high,few large,p,p
783,1,784,Block 6,1.0338363999999274,0.05,True,person,person,control,many small,e,e
784,1,785,Block 6,0.8319574000001921,0.025,True,person,person,high,many small,e,e
785,1,786,Block 6,0.7545000000000073,0.1,True,cat,cat,high,few large,q,q
786,1,787,Block 6,1.47175500000003,0.025,True,tree,tree,high,few large,p,p
787,1,788,Block 6,1.3195839999998498,0.1,True,person,person,control,many small,e,e
788,1,789,Block 6,1.2911318000001302,0.05,True,building,building,high,many small,o,o
789,1,790,Block 6,1.8392444000000976,0.1,True,bird,bird,control,many small,w,w
790,1,791,Block 6,0.7851347999999234,0.05,True,cat,cat,high,few large,q,q
791,1,792,Block 6,0.6696299000000181,0.05,True,cat,cat,control,few large,q,q
793,1,794,Block 6,0.8651103000001967,0.025,True,cat,cat,high,few large,q,q
794,1,795,Block 6,0.9828324000000066,0.1,True,bird,bird,control,many small,w,w
795,1,796,Block 6,1.6106512000001203,0.1,True,bus,bus,low,many small,u,u
796,1,797,Block 6,0.9548777999998492,0.05,True,banana,banana,high,few large,r,r
797,1,798,Block 6,1.147168999999849,0.1,True,firehydrant,firehydrant,high,few large,i,i
798,1,799,Block 6,1.2372882999998185,0.05,True,person,person,low,many small,e,e
799,1,800,Block 6,1.1228092999999717,0.025,True,person,person,low,few large,e,e
800,1,801,Block 6,1.162645899999916,0.1,True,bird,bird,high,few large,w,w
801,1,802,Block 6,0.8166759999999158,0.1,True,banana,banana,control,many small,r,r
802,1,803,Block 6,1.406160600000021,0.05,False,building,banana,high,many small,r,o
803,1,804,Block 6,2.0060707000002367,0.1,True,cat,cat,high,many small,q,q
804,1,805,Block 6,1.0810771000001296,0.1,True,firehydrant,firehydrant,high,many small,i,i
805,1,806,Block 6,1.078762099999949,0.05,True,building,building,low,few large,o,o
806,1,807,Block 6,0.7053948000002492,0.1,True,tree,tree,low,few large,p,p
807,1,808,Block 6,1.756520399999772,0.025,True,building,building,high,many small,o,o
808,1,809,Block 6,0.7710581999999704,0.05,True,firehydrant,firehydrant,control,few large,i,i
809,1,810,Block 6,0.7105516999999963,0.05,True,tree,tree,control,many small,p,p
810,1,811,Block 6,0.9536044999999832,0.025,True,person,person,low,many small,e,e
811,1,812,Block 6,0.9724909999999908,0.1,True,person,person,high,few large,e,e
812,1,813,Block 6,1.031452900000204,0.1,True,bus,bus,control,many small,u,u
813,1,814,Block 6,0.6387650000001486,0.1,True,bus,bus,control,few large,u,u
814,1,815,Block 6,1.0709866000001966,0.1,False,bird,cat,control,few large,q,w
815,1,816,Block 6,1.8881612000000128,0.025,False,bird,tree,low,few large,p,w
816,1,817,Block 6,0.8210731999997734,0.025,True,bird,bird,control,many small,w,w
817,1,818,Block 6,0.5088185999998132,0.1,True,bird,bird,control,few large,w,w
818,1,819,Block 6,0.7204124999998385,0.025,False,cat,bird,low,few large,w,q
819,1,820,Block 6,0.9200598999996146,0.025,True,person,person,high,few large,e,e
820,1,821,Block 6,0.6436604999998963,0.1,True,banana,banana,control,many small,r,r
821,1,822,Block 6,1.840266000000156,0.1,False,building,bus,high,many small,u,o
822,1,823,Block 6,0.8608051999999589,0.05,True,cat,cat,low,few large,q,q
823,1,824,Block 6,1.279804199999944,0.1,True,building,building,low,many small,o,o
824,1,825,Block 6,1.5846732999998494,0.05,True,building,building,control,few large,o,o
825,1,826,Block 6,0.9853715999997804,0.025,True,bird,bird,control,few large,w,w
826,1,827,Block 6,0.9599857999996856,0.05,True,bus,bus,high,few large,u,u
827,1,828,Block 6,1.6173918999998025,0.025,False,person,banana,high,many small,r,e
828,1,829,Block 6,0.9147573000000192,0.1,True,bird,bird,control,few large,w,w
829,1,830,Block 6,1.0611423999998806,0.05,True,bird,bird,high,many small,w,w
830,1,831,Block 6,0.7699213000000782,0.05,True,tree,tree,high,few large,p,p
831,1,832,Block 6,1.8545546999998803,0.025,True,firehydrant,firehydrant,control,many small,i,i
832,1,833,Block 6,1.1480781999998726,0.1,True,banana,banana,control,many small,r,r
833,1,834,Block 6,1.3202925000000505,0.1,True,tree,tree,low,few large,p,p
834,1,835,Block 6,0.8597283999997671,0.05,True,tree,tree,control,few large,p,p
835,1,836,Block 6,0.9228859999998348,0.1,True,bus,bus,low,few large,u,u
836,1,837,Block 6,1.4585011999997732,0.1,True,cat,cat,high,many small,q,q
837,1,838,Block 6,0.9509247999999388,0.1,True,person,person,low,few large,e,e
838,1,839,Block 6,0.9075871000000006,0.1,True,bird,bird,control,few large,w,w
839,1,840,Block 6,1.5787246999998388,0.025,False,building,bus,high,many small,u,o
840,1,841,Block 6,0.6781147000001511,0.025,True,tree,tree,low,few large,p,p
841,1,842,Block 6,0.9095792000002804,0.025,True,tree,tree,high,many small,p,p
842,1,843,Block 6,0.9854969999996684,0.05,True,cat,cat,low,many small,q,q
843,1,844,Block 6,2.3312729999997828,0.025,True,building,building,high,many small,o,o
844,1,845,Block 6,1.4753206999998838,0.025,True,person,person,low,few large,e,e
845,1,846,Block 6,0.9337787999998,0.025,True,person,person,control,many small,e,e
846,1,847,Block 6,1.625738100000035,0.1,True,building,building,high,few large,o,o
847,1,848,Block 6,1.240556799999922,0.025,True,firehydrant,firehydrant,control,few large,i,i
848,1,849,Block 6,0.7312518000003365,0.1,True,tree,tree,low,many small,p,p
849,1,850,Block 6,0.7023589999998876,0.05,True,tree,tree,low,many small,p,p
850,1,851,Block 6,1.0214230999999927,0.025,True,banana,banana,control,many small,r,r
851,1,852,Block 6,1.2049981000000116,0.025,False,person,banana,low,many small,r,e
852,1,853,Block 6,1.2310374999997291,0.1,True,building,building,control,many small,o,o
853,1,854,Block 6,1.3198281999998471,0.1,True,bird,bird,low,many small,w,w
854,1,855,Block 6,1.1360000999998192,0.025,True,bus,bus,high,many small,u,u
855,1,856,Block 6,1.2104424000003746,0.05,True,tree,tree,low,many small,p,p
856,1,857,Block 6,0.6716097999997146,0.1,True,tree,tree,high,few large,p,p
857,1,858,Block 6,1.359643799999958,0.05,True,banana,banana,low,many small,r,r
858,1,859,Block 6,0.9219250999999532,0.025,True,banana,banana,low,many small,r,r
859,1,860,Block 6,2.160714800000278,0.1,True,person,person,control,many small,e,e
860,1,861,Block 6,0.7166578999999729,0.1,True,person,person,low,few large,e,e
862,1,863,Block 6,0.7048027999999249,0.1,True,bus,bus,control,few large,u,u
863,1,864,Block 6,1.1658395999997992,0.05,True,bus,bus,high,few large,u,u
864,1,865,Block 7,1.1066442999999708,0.1,True,person,person,control,many small,e,e
865,1,866,Block 7,1.5300974000001588,0.1,True,bird,bird,high,few large,w,w
866,1,867,Block 7,1.348966499999733,0.025,False,bird,cat,high,few large,q,w
867,1,868,Block 7,0.8516315000001669,0.05,True,banana,banana,high,many small,r,r
868,1,869,Block 7,0.6782757999999376,0.05,True,cat,cat,control,few large,q,q
869,1,870,Block 7,1.0765747999998894,0.025,True,person,person,low,many small,e,e
870,1,871,Block 7,0.9582310999999208,0.05,True,bird,bird,control,many small,w,w
871,1,872,Block 7,1.0017026000000442,0.1,True,bird,bird,control,many small,w,w
872,1,873,Block 7,0.9338275999998586,0.025,True,bus,bus,control,few large,u,u
873,1,874,Block 7,1.4304903999995986,0.05,True,firehydrant,firehydrant,high,many small,i,i
874,1,875,Block 7,1.0685702000000674,0.05,True,bird,bird,control,few large,w,w
875,1,876,Block 7,1.3012656999999308,0.05,True,cat,cat,control,few large,q,q
876,1,877,Block 7,0.9179399999998168,0.1,True,tree,tree,low,few large,p,p
877,1,878,Block 7,1.5109999000001153,0.05,False,firehydrant,tree,high,many small,p,i
878,1,879,Block 7,0.8562854000001607,0.025,True,building,building,low,few large,o,o
879,1,880,Block 7,0.861914699999943,0.05,True,banana,banana,control,many small,r,r
880,1,881,Block 7,0.6375060999998823,0.1,True,banana,banana,control,many small,r,r
881,1,882,Block 7,1.10270730000002,0.025,True,bird,bird,control,few large,w,w
882,1,883,Block 7,0.9314055999998344,0.025,False,bird,tree,high,many small,p,w
883,1,884,Block 7,1.8624975999996425,0.05,False,bus,building,low,many small,o,u
884,1,885,Block 7,1.6655518000002305,0.025,True,firehydrant,firehydrant,high,few large,i,i
885,1,886,Block 7,0.916794000000209,0.1,True,bird,bird,low,many small,w,w
886,1,887,Block 7,1.3120042000000467,0.05,True,firehydrant,firehydrant,control,many small,i,i
887,1,888,Block 7,1.532832999999755,0.1,True,cat,cat,control,many small,q,q
888,1,889,Block 7,1.2757503999996516,0.05,False,cat,tree,high,many small,p,q
889,1,890,Block 7,0.871739400000024,0.05,True,firehydrant,firehydrant,high,few large,i,i
890,1,891,Block 7,1.0564728999997897,0.1,True,bus,bus,low,many small,u,u
891,1,892,Block 7,1.6836170999999922,0.025,False,banana,bus,high,many small,u,r
893,1,894,Block 7,1.148554200000035,0.05,True,banana,banana,high,few large,r,r
894,1,895,Block 7,0.9451469999999064,0.025,True,firehydrant,firehydrant,low,few large,i,i
895,1,896,Block 7,0.9615819999999076,0.025,True,building,building,high,many small,o,o
896,1,897,Block 7,0.8154064999998809,0.1,True,tree,tree,high,few large,p,p
897,1,898,Block 7,0.7596674000001258,0.025,True,firehydrant,firehydrant,low,many small,i,i
898,1,899,Block 7,0.8711422999999741,0.05,True,building,building,high,many small,o,o
899,1,900,Block 7,0.9043611000001874,0.05,True,bird,bird,control,few large,w,w
900,1,901,Block 7,0.6686764999999468,0.05,True,cat,cat,control,many small,q,q
901,1,902,Block 7,1.9976916000000529,0.05,False,banana,bird,high,many small,w,r
902,1,903,Block 7,0.907882999999856,0.05,True,banana,banana,control,few large,r,r
903,1,904,Block 7,1.112333000000035,0.025,True,firehydrant,firehydrant,high,many small,i,i
904,1,905,Block 7,0.6658354000001054,0.025,True,cat,cat,high,few large,q,q
905,1,906,Block 7,0.5494775000001937,0.05,True,cat,cat,control,many small,q,q
906,1,907,Block 7,0.6966606999999385,0.025,True,tree,tree,control,many small,p,p
907,1,908,Block 7,0.7981609000003118,0.05,True,banana,banana,control,few large,r,r
908,1,909,Block 7,0.6898212000000967,0.1,True,cat,cat,low,few large,q,q
909,1,910,Block 7,1.13727820000031,0.025,True,bus,bus,control,many small,u,u
910,1,911,Block 7,1.1250295999998343,0.1,True,firehydrant,firehydrant,high,many small,i,i
911,1,912,Block 7,1.460718799999995,0.025,True,building,building,high,few large,o,o
912,1,913,Block 7,1.021402599999874,0.025,False,bird,tree,high,many small,p,w
913,1,914,Block 7,1.1576083999998446,0.1,True,building,building,high,many small,o,o
914,1,915,Block 7,0.7519585000000006,0.1,True,building,building,high,few large,o,o
915,1,916,Block 7,0.6113775999997415,0.05,True,tree,tree,high,many small,p,p
916,1,917,Block 7,0.8964591999997538,0.05,False,bus,building,high,many small,o,u
917,1,918,Block 7,0.915599999999813,0.025,False,bird,cat,high,few large,q,w
918,1,919,Block 7,0.9874700000000304,0.05,True,building,building,low,many small,o,o
919,1,920,Block 7,1.0672936999999365,0.025,True,bird,bird,control,many small,w,w
920,1,921,Block 7,1.5340163999999277,0.1,False,bird,cat,high,few large,q,w
921,1,922,Block 7,0.9173232000002828,0.1,True,building,building,high,few large,o,o
922,1,923,Block 7,1.0071811000002526,0.1,True,bus,bus,low,many small,u,u
923,1,924,Block 7,0.934871999999814,0.05,True,building,building,high,few large,o,o
924,1,925,Block 7,1.4657854000001862,0.1,True,banana,banana,low,many small,r,r
925,1,926,Block 7,1.0182589000000917,0.1,True,building,building,control,many small,o,o
926,1,927,Block 7,0.8568624999998065,0.1,True,cat,cat,low,many small,q,q
927,1,928,Block 7,1.5082563999999363,0.05,True,person,person,high,many small,e,e
928,1,929,Block 7,0.6859878000000208,0.1,True,person,person,high,few large,e,e
929,1,930,Block 7,0.9106660999996166,0.025,True,banana,banana,control,many small,r,r
930,1,931,Block 7,1.133581200000208,0.1,True,tree,tree,high,many small,p,p
931,1,932,Block 7,2.284800200000064,0.05,True,person,person,control,few large,e,e
932,1,933,Block 7,0.9400256999997508,0.05,True,person,person,control,many small,e,e
933,1,934,Block 7,1.1124307999998564,0.05,True,bus,bus,control,few large,u,u
934,1,935,Block 7,0.7678691999999501,0.05,True,tree,tree,high,many small,p,p
935,1,936,Block 7,0.8029133999998521,0.025,False,bird,tree,low,many small,p,w
936,1,937,Block 7,1.0409758000000693,0.025,True,building,building,control,many small,o,o
937,1,938,Block 7,0.8708199000002423,0.1,True,cat,cat,high,many small,q,q
938,1,939,Block 7,1.1929685999998585,0.1,True,firehydrant,firehydrant,low,many small,i,i
939,1,940,Block 7,0.6672945999998774,0.025,True,firehydrant,firehydrant,control,many small,i,i
940,1,941,Block 7,0.7669341999999233,0.025,True,firehydrant,firehydrant,low,few large,i,i
941,1,942,Block 7,1.1999419999997372,0.1,True,person,person,high,many small,e,e
942,1,943,Block 7,1.6388075999998364,0.025,True,tree,tree,control,many small,p,p
943,1,944,Block 7,1.4260129999997844,0.1,False,cat,person,high,many small,e,q
944,1,945,Block 7,1.051002900000185,0.025,True,building,building,low,few large,o,o
945,1,946,Block 7,0.8119268999998894,0.025,True,firehydrant,firehydrant,high,few large,i,i
946,1,947,Block 7,1.3514494000000925,0.1,True,tree,tree,control,many small,p,p
947,1,948,Block 7,1.063953599999877,0.1,True,banana,banana,control,few large,r,r
948,1,949,Block 7,1.4601348999999573,0.05,True,building,building,control,many small,o,o
949,1,950,Block 7,1.118643199999951,0.025,True,building,building,high,many small,o,o
950,1,951,Block 7,0.8009839000001193,0.05,True,firehydrant,firehydrant,low,few large,i,i
951,1,952,Block 7,1.6138707000000068,0.1,True,person,person,low,few large,e,e
952,1,953,Block 7,1.1894956000001002,0.05,True,tree,tree,high,few large,p,p
953,1,954,Block 7,0.8773292999999285,0.025,True,person,person,control,few large,e,e
954,1,955,Block 7,0.95931070000006,0.025,True,building,building,low,many small,o,o
955,1,956,Block 7,1.1859261999998123,0.1,True,bus,bus,control,many small,u,u
956,1,957,Block 7,0.7752146999996512,0.1,True,person,person,control,few large,e,e
957,1,958,Block 7,0.7279192000000876,0.025,True,tree,tree,control,few large,p,p
958,1,959,Block 7,0.7802069999997912,0.05,True,person,person,low,many small,e,e
959,1,960,Block 7,1.4096620999998777,0.025,True,cat,cat,control,few large,q,q
960,1,961,Block 7,0.90233279999984,0.025,True,firehydrant,firehydrant,low,many small,i,i
961,1,962,Block 7,0.7714170000003833,0.05,True,banana,banana,low,few large,r,r
962,1,963,Block 7,0.9995448999998188,0.05,True,firehydrant,firehydrant,control,few large,i,i
963,1,964,Block 7,0.6789513999997325,0.025,True,firehydrant,firehydrant,low,many small,i,i
964,1,965,Block 7,0.8076774000001024,0.025,False,person,bird,high,many small,w,e
965,1,966,Block 7,1.310475199999928,0.05,True,building,building,low,many small,o,o
966,1,967,Block 7,1.190925200000038,0.025,True,tree,tree,high,many small,p,p
967,1,968,Block 7,0.7627238000000034,0.1,True,tree,tree,low,many small,p,p
968,1,969,Block 7,0.9713150999996288,0.05,True,bus,bus,high,few large,u,u
969,1,970,Block 7,0.9140580999996928,0.05,True,banana,banana,control,many small,r,r
970,1,971,Block 7,1.1253749000002244,0.05,True,building,building,low,many small,o,o
971,1,972,Block 7,0.8897603999998864,0.1,True,firehydrant,firehydrant,high,many small,i,i
972,1,973,Block 7,1.268184999999903,0.05,True,tree,tree,control,many small,p,p
973,1,974,Block 7,0.7589428999999654,0.05,True,firehydrant,firehydrant,control,many small,i,i
974,1,975,Block 7,0.9201159000003828,0.025,True,banana,banana,low,few large,r,r
975,1,976,Block 7,1.1445164000001569,0.025,True,tree,tree,low,many small,p,p
976,1,977,Block 7,1.033518400000048,0.1,True,person,person,low,few large,e,e
977,1,978,Block 7,0.6531839000003856,0.1,True,tree,tree,control,few large,p,p
978,1,979,Block 7,0.6226566999998795,0.1,True,tree,tree,control,many small,p,p
979,1,980,Block 7,1.4593176999997013,0.025,True,cat,cat,high,few large,q,q
980,1,981,Block 7,0.6318145000000186,0.1,True,tree,tree,high,many small,p,p
981,1,982,Block 7,0.809513600000173,0.05,True,bird,bird,control,few large,w,w
982,1,983,Block 7,1.0214591000003566,0.1,True,banana,banana,low,many small,r,r
983,1,984,Block 7,0.6750793000001067,0.025,True,cat,cat,control,few large,q,q
984,1,985,Block 7,1.374507499999709,0.05,True,person,person,high,few large,e,e
985,1,986,Block 7,1.2887375000000247,0.1,False,firehydrant,person,high,many small,e,i
986,1,987,Block 7,0.9044361999999636,0.1,True,banana,banana,control,many small,r,r
987,1,988,Block 7,1.1008139000000483,0.1,True,firehydrant,firehydrant,high,few large,i,i
988,1,989,Block 7,1.1038698999996086,0.05,True,person,person,high,few large,e,e
989,1,990,Block 7,0.7273677999996835,0.025,True,tree,tree,control,few large,p,p
990,1,991,Block 7,1.053956499999913,0.05,True,banana,banana,control,few large,r,r
991,1,992,Block 7,0.6740591000002496,0.025,True,tree,tree,control,many small,p,p
992,1,993,Block 7,1.1047404999999344,0.025,True,building,building,high,many small,o,o
993,1,994,Block 7,0.671995500000321,0.025,True,building,building,low,many small,o,o
994,1,995,Block 7,0.974232700000357,0.05,True,person,person,low,few large,e,e
995,1,996,Block 7,0.8472773000003144,0.05,True,banana,banana,control,few large,r,r
996,1,997,Block 7,0.8337501999999404,0.1,True,cat,cat,high,many small,q,q
997,1,998,Block 7,0.7024461999999403,0.1,True,tree,tree,control,many small,p,p
998,1,999,Block 7,1.00308670000004,0.025,True,banana,banana,control,many small,r,r
999,1,1000,Block 7,0.7791833000001134,0.025,False,bird,tree,low,many small,p,w
1000,1,1001,Block 7,0.8827630000000681,0.025,True,bird,bird,control,few large,w,w
1001,1,1002,Block 7,1.090642899999693,0.05,False,person,banana,low,many small,r,e
1002,1,1003,Block 7,1.0954968000000918,0.05,True,building,building,low,many small,o,o
1003,1,1004,Block 7,0.7418501000001925,0.025,True,building,building,control,many small,o,o
1005,1,1006,Block 7,0.926716999999826,0.025,True,firehydrant,firehydrant,high,few large,i,i
1006,1,1007,Block 7,0.9194320999999944,0.1,True,cat,cat,high,few large,q,q
1007,1,1008,Block 7,1.1740758000000824,0.05,False,firehydrant,building,high,few large,o,i
1008,1,1009,Block 8,1.5250184000001354,0.05,True,bird,bird,high,few large,w,w
1009,1,1010,Block 8,1.3570338999998055,0.1,True,firehydrant,firehydrant,control,few large,i,i
1010,1,1011,Block 8,0.7156157999997959,0.025,True,firehydrant,firehydrant,low,many small,i,i
1011,1,1012,Block 8,1.023609100000158,0.05,True,firehydrant,firehydrant,high,many small,i,i
1012,1,1013,Block 8,0.717648299999837,0.025,True,cat,cat,high,few large,q,q
1013,1,1014,Block 8,0.9768369999997047,0.1,True,tree,tree,control,few large,p,p
1014,1,1015,Block 8,0.5754206000001432,0.1,True,tree,tree,control,few large,p,p
1015,1,1016,Block 8,0.9694789000000128,0.025,True,banana,banana,high,many small,r,r
1016,1,1017,Block 8,0.8631026000002748,0.025,True,firehydrant,firehydrant,high,few large,i,i
1017,1,1018,Block 8,1.1038997000000563,0.1,False,bus,building,high,many small,o,u
1018,1,1019,Block 8,0.7713788000000932,0.025,False,cat,tree,high,many small,p,q
1019,1,1020,Block 8,1.4520348000000922,0.025,True,person,person,high,few large,e,e
1020,1,1021,Block 8,1.0358767999996417,0.05,True,bird,bird,low,few large,w,w
1021,1,1022,Block 8,0.912686499999836,0.1,True,bus,bus,control,few large,u,u
1022,1,1023,Block 8,0.7577347999999802,0.05,True,tree,tree,high,many small,p,p
1023,1,1024,Block 8,1.0783433000001423,0.025,False,bus,firehydrant,low,many small,i,u
1024,1,1025,Block 8,0.93271760000016,0.1,True,banana,banana,control,few large,r,r
1025,1,1026,Block 8,0.7422997000003306,0.025,True,cat,cat,control,many small,q,q
1026,1,1027,Block 8,1.5562370000002377,0.05,True,cat,cat,control,many small,q,q
1027,1,1028,Block 8,0.725330600000234,0.05,True,tree,tree,low,many small,p,p
1028,1,1029,Block 8,2.2056643000000804,0.05,True,cat,cat,low,few large,q,q
1029,1,1030,Block 8,1.5995692000001327,0.05,True,building,building,high,many small,o,o
1030,1,1031,Block 8,0.9797836000002462,0.05,True,banana,banana,control,few large,r,r
1031,1,1032,Block 8,0.6335217999999259,0.1,True,banana,banana,control,few large,r,r
1032,1,1033,Block 8,0.8762204999998175,0.025,True,firehydrant,firehydrant,low,few large,i,i
1033,1,1034,Block 8,0.8820110000001478,0.1,True,banana,banana,low,many small,r,r
1034,1,1035,Block 8,1.1415303999997377,0.05,True,person,person,control,many small,e,e
1035,1,1036,Block 8,0.8700894999997217,0.1,True,building,building,low,many small,o,o
1036,1,1037,Block 8,1.5545587999999952,0.025,True,bird,bird,high,few large,w,w
1037,1,1038,Block 8,1.7191729000001033,0.1,False,banana,tree,high,many small,p,r
1038,1,1039,Block 8,0.9851718999998412,0.025,True,bird,bird,high,few large,w,w
1039,1,1040,Block 8,1.2650970999998208,0.025,True,bus,bus,low,few large,u,u
1040,1,1041,Block 8,0.8284929999999804,0.05,True,building,building,low,many small,o,o
1041,1,1042,Block 8,0.727972900000168,0.025,True,building,building,control,many small,o,o
1042,1,1043,Block 8,0.8312359999999899,0.05,True,bus,bus,low,many small,u,u
1043,1,1044,Block 8,0.8125770999999986,0.025,True,cat,cat,low,few large,q,q
1044,1,1045,Block 8,0.946160299999974,0.025,True,person,person,control,few large,e,e
1045,1,1046,Block 8,0.925691100000222,0.025,True,bus,bus,control,many small,u,u
1046,1,1047,Block 8,0.7053681000002143,0.05,True,building,building,control,few large,o,o
1047,1,1048,Block 8,0.7374951000001602,0.025,True,tree,tree,high,few large,p,p
1048,1,1049,Block 8,1.0982733000000735,0.1,True,person,person,low,few large,e,e
1049,1,1050,Block 8,1.6363142000000153,0.1,True,tree,tree,control,many small,p,p
1050,1,1051,Block 8,1.2748151999999209,0.05,True,building,building,control,many small,o,o
1051,1,1052,Block 8,1.3491275000001224,0.025,True,cat,cat,low,few large,q,q
1052,1,1053,Block 8,0.8327864999996564,0.1,True,tree,tree,low,many small,p,p
1053,1,1054,Block 8,1.3802857999999103,0.025,True,tree,tree,high,many small,p,p
1054,1,1055,Block 8,1.249756400000024,0.1,False,banana,bird,high,many small,w,r
1055,1,1056,Block 8,0.74847120000004,0.05,True,tree,tree,high,few large,p,p
1056,1,1057,Block 8,0.943007899999884,0.1,True,firehydrant,firehydrant,control,many small,i,i
1057,1,1058,Block 8,1.0952046000002156,0.1,True,banana,banana,high,few large,r,r
1058,1,1059,Block 8,0.7248970999999074,0.025,True,tree,tree,control,many small,p,p
1059,1,1060,Block 8,1.3747308999995766,0.05,True,tree,tree,high,few large,p,p
1060,1,1061,Block 8,1.0056030999999166,0.025,False,cat,tree,high,many small,p,q
1061,1,1062,Block 8,0.8731748999998672,0.05,True,banana,banana,control,many small,r,r
1062,1,1063,Block 8,0.9467952999998488,0.025,True,bus,bus,high,many small,u,u
1063,1,1064,Block 8,1.0640129999997043,0.1,True,person,person,low,few large,e,e
1064,1,1065,Block 8,1.1138393999999607,0.1,True,firehydrant,firehydrant,high,many small,i,i
1065,1,1066,Block 8,0.9079515000003084,0.1,True,bus,bus,control,many small,u,u
1066,1,1067,Block 8,1.666966799999955,0.1,True,bird,bird,high,few large,w,w
1067,1,1068,Block 8,1.3003333000001476,0.025,True,bus,bus,high,many small,u,u
1068,1,1069,Block 8,0.8118616000001566,0.05,True,cat,cat,low,few large,q,q
1069,1,1070,Block 8,0.6898357999998552,0.05,True,tree,tree,low,few large,p,p
1070,1,1071,Block 8,0.9102836000001844,0.025,True,firehydrant,firehydrant,control,many small,i,i
1071,1,1072,Block 8,1.4599162000004071,0.025,False,banana,tree,low,many small,p,r
1072,1,1073,Block 8,0.8456796999998915,0.1,True,bus,bus,high,many small,u,u
1073,1,1074,Block 8,0.9660376999995606,0.05,True,banana,banana,control,few large,r,r
1074,1,1075,Block 8,0.6941530000003695,0.05,True,tree,tree,low,many small,p,p
1075,1,1076,Block 8,1.0716004999999311,0.025,True,firehydrant,firehydrant,control,few large,i,i
1076,1,1077,Block 8,0.9929474000000482,0.1,True,banana,banana,control,few large,r,r
1077,1,1078,Block 8,1.824681099999907,0.025,True,bus,bus,high,few large,u,u
1078,1,1079,Block 8,1.3854778999998416,0.025,True,bird,bird,control,many small,w,w
1079,1,1080,Block 8,1.1008889999998246,0.1,True,person,person,low,many small,e,e
1080,1,1081,Block 8,1.0675430000001145,0.05,True,firehydrant,firehydrant,control,many small,i,i
1081,1,1082,Block 8,0.6604434000000765,0.025,True,tree,tree,low,few large,p,p
1082,1,1083,Block 8,0.9344578000000184,0.05,True,banana,banana,high,few large,r,r
1083,1,1084,Block 8,0.640195500000118,0.1,True,banana,banana,control,many small,r,r
1084,1,1085,Block 8,1.0745790999999372,0.025,True,building,building,high,few large,o,o
1085,1,1086,Block 8,0.8497600000000602,0.1,True,person,person,control,many small,e,e
1086,1,1087,Block 8,1.407285199999933,0.025,True,person,person,control,many small,e,e
1087,1,1088,Block 8,1.2070748000001004,0.1,False,bird,tree,low,many small,p,w
1088,1,1089,Block 8,0.7989437999999609,0.025,True,person,person,low,few large,e,e
1089,1,1090,Block 8,1.805776600000172,0.1,True,bird,bird,low,many small,w,w
1090,1,1091,Block 8,1.1656256000001122,0.1,True,firehydrant,firehydrant,high,few large,i,i
1091,1,1092,Block 8,1.161042499999894,0.1,True,firehydrant,firehydrant,control,many small,i,i
1092,1,1093,Block 8,0.9266766000000644,0.05,True,bus,bus,control,many small,u,u
1093,1,1094,Block 8,0.9673791000000164,0.025,True,bus,bus,high,few large,u,u
1094,1,1095,Block 8,0.5243060000002515,0.05,True,building,building,control,many small,o,o
1095,1,1096,Block 8,0.7946490000003905,0.025,True,banana,banana,control,many small,r,r
1096,1,1097,Block 8,0.7748432999997021,0.025,True,firehydrant,firehydrant,control,few large,i,i
1097,1,1098,Block 8,0.7257361000001765,0.05,True,cat,cat,control,many small,q,q
1098,1,1099,Block 8,0.8962855999998283,0.05,True,bus,bus,high,many small,u,u
1099,1,1100,Block 8,1.396060900000066,0.1,False,banana,bird,low,many small,w,r
1100,1,1101,Block 8,1.2762400000001437,0.1,True,tree,tree,low,few large,p,p
1101,1,1102,Block 8,0.627720799999679,0.1,True,tree,tree,control,many small,p,p
1102,1,1103,Block 8,1.1077705000002425,0.025,True,bus,bus,control,few large,u,u
1103,1,1104,Block 8,1.1147381999999195,0.1,True,bus,bus,control,few large,u,u
1104,1,1105,Block 8,0.7677297000000181,0.1,True,firehydrant,firehydrant,low,many small,i,i
1105,1,1106,Block 8,1.0511470000001282,0.025,True,bird,bird,control,many small,w,w
1106,1,1107,Block 8,0.8719945999996526,0.1,True,tree,tree,high,many small,p,p
1107,1,1108,Block 8,1.0181341000002249,0.05,True,building,building,high,few large,o,o
1108,1,1109,Block 8,1.0628185999999005,0.025,True,person,person,control,many small,e,e
1109,1,1110,Block 8,0.7242490999997244,0.05,True,cat,cat,control,many small,q,q
1110,1,1111,Block 8,1.8134889000002656,0.1,True,building,building,high,many small,o,o
1111,1,1112,Block 8,0.9281341999999312,0.1,True,tree,tree,high,many small,p,p
1112,1,1113,Block 8,0.851924400000371,0.05,False,bird,tree,low,many small,p,w
1113,1,1114,Block 8,0.96798119999994,0.1,True,building,building,control,few large,o,o
1114,1,1115,Block 8,1.1311330999997151,0.025,True,person,person,low,many small,e,e
1115,1,1116,Block 8,0.7202791000004254,0.05,False,bird,cat,high,few large,q,w
1116,1,1117,Block 8,0.976855799999612,0.05,True,firehydrant,firehydrant,high,few large,i,i
1117,1,1118,Block 8,0.9151965999999448,0.05,True,person,person,control,many small,e,e
1118,1,1119,Block 8,0.9034295999999812,0.025,True,firehydrant,firehydrant,low,few large,i,i
1119,1,1120,Block 8,0.7035986999999295,0.025,True,tree,tree,low,few large,p,p
1120,1,1121,Block 8,1.3966559000000416,0.05,False,bird,tree,low,few large,p,w
1121,1,1122,Block 8,0.6792187000000922,0.025,True,tree,tree,control,many small,p,p
1122,1,1123,Block 8,0.7374346000001424,0.025,True,tree,tree,low,many small,p,p
1123,1,1124,Block 8,1.1542254000000869,0.05,True,bus,bus,low,many small,u,u
1124,1,1125,Block 8,1.0467665999999554,0.025,True,banana,banana,control,many small,r,r
1125,1,1126,Block 8,0.7145585999996911,0.1,True,tree,tree,low,few large,p,p
1126,1,1127,Block 8,1.1543743000001996,0.05,True,person,person,high,many small,e,e
1127,1,1128,Block 8,0.8564971000000696,0.1,True,cat,cat,low,many small,q,q
1128,1,1129,Block 8,0.9452825000003032,0.1,False,bird,cat,high,many small,q,w
1129,1,1130,Block 8,0.6716726999998173,0.1,True,cat,cat,control,many small,q,q
1130,1,1131,Block 8,0.6786253999998735,0.025,True,cat,cat,low,many small,q,q
1131,1,1132,Block 8,1.9986974000003104,0.05,False,banana,cat,high,many small,q,r
1132,1,1133,Block 8,0.7871314999997594,0.1,True,tree,tree,low,many small,p,p
1133,1,1134,Block 8,0.946111899999778,0.1,True,bus,bus,control,many small,u,u
1134,1,1135,Block 8,0.812449099999867,0.05,True,building,building,control,few large,o,o
1135,1,1136,Block 8,0.8091803000002074,0.05,True,bus,bus,low,many small,u,u
1136,1,1137,Block 8,1.221637000000101,0.1,True,person,person,low,few large,e,e
1137,1,1138,Block 8,1.1672994000000472,0.1,False,banana,bird,high,few large,w,r
1138,1,1139,Block 8,0.9409857999999076,0.1,True,building,building,low,many small,o,o
1139,1,1140,Block 8,0.7025642000003245,0.05,True,building,building,high,many small,o,o
1140,1,1141,Block 8,1.0878963000000113,0.05,True,person,person,high,many small,e,e
1141,1,1142,Block 8,1.0897555000001375,0.1,True,building,building,control,few large,o,o
1142,1,1143,Block 8,1.2685426999996707,0.025,False,banana,bus,low,few large,u,r
1143,1,1144,Block 8,0.9479434999998376,0.025,True,building,building,control,few large,o,o
1144,1,1145,Block 8,1.4788229999999205,0.1,True,firehydrant,firehydrant,low,few large,i,i
1145,1,1146,Block 8,0.9710284999996476,0.025,True,banana,banana,low,many small,r,r
1146,1,1147,Block 8,0.8202759999999216,0.05,True,cat,cat,high,many small,q,q
1147,1,1148,Block 8,1.6445404999999482,0.1,True,cat,cat,high,many small,q,q
1148,1,1149,Block 8,0.8598986000001787,0.05,True,cat,cat,high,many small,q,q
1149,1,1150,Block 8,1.0612970000001951,0.1,True,bird,bird,low,few large,w,w
1150,1,1151,Block 8,0.8876291999999921,0.1,True,bus,bus,high,many small,u,u
1151,1,1152,Block 8,1.0580229000001964,0.025,True,bus,bus,high,few large,u,u
1152,1,1153,Block 9,1.1945411000001511,0.05,True,cat,cat,low,few large,q,q
1153,1,1154,Block 9,1.3583772999995745,0.025,True,cat,cat,high,many small,q,q
1154,1,1155,Block 9,0.8627033000002484,0.1,True,banana,banana,low,many small,r,r
1155,1,1156,Block 9,1.0982289999997192,0.025,True,banana,banana,high,many small,r,r
1156,1,1157,Block 9,0.891940799999702,0.025,True,building,building,control,many small,o,o
1157,1,1158,Block 9,0.6581035000003794,0.025,True,cat,cat,control,few large,q,q
1158,1,1159,Block 9,0.8485343000002104,0.05,True,bird,bird,low,few large,w,w
1159,1,1160,Block 9,0.7660368000001654,0.025,True,bus,bus,control,many small,u,u
1160,1,1161,Block 9,1.3174595999998928,0.05,True,firehydrant,firehydrant,control,many small,i,i
1161,1,1162,Block 9,1.0809729000002335,0.05,True,bus,bus,high,few large,u,u
1162,1,1163,Block 9,1.142461800000092,0.025,True,tree,tree,control,few large,p,p
1163,1,1164,Block 9,1.8993110000001248,0.025,True,building,building,control,few large,o,o
1164,1,1165,Block 9,1.8587014999998248,0.05,False,cat,firehydrant,low,many small,i,q
1165,1,1166,Block 9,1.3340370000000803,0.1,True,building,building,low,few large,o,o
1166,1,1167,Block 9,1.1565357999998014,0.1,True,building,building,low,few large,o,o
1167,1,1168,Block 9,0.679265100000066,0.025,True,tree,tree,high,few large,p,p
1168,1,1169,Block 9,1.0009703000000627,0.05,True,person,person,low,many small,e,e
1169,1,1170,Block 9,1.1915742999999566,0.05,True,bird,bird,control,many small,w,w
1170,1,1171,Block 9,0.8448448999997709,0.025,True,cat,cat,low,few large,q,q
1171,1,1172,Block 9,1.414498199999798,0.05,True,building,building,control,few large,o,o
1172,1,1173,Block 9,0.7680684000001747,0.025,True,cat,cat,control,many small,q,q
1173,1,1174,Block 9,0.8278379999997014,0.025,True,tree,tree,control,many small,p,p
1174,1,1175,Block 9,0.961499399999866,0.05,True,building,building,control,many small,o,o
1175,1,1176,Block 9,1.070339899999908,0.025,True,bird,bird,control,few large,w,w
1176,1,1177,Block 9,0.897418099999868,0.05,False,banana,bird,high,many small,w,r
1177,1,1178,Block 9,1.9798375000000303,0.05,False,tree,bird,high,few large,w,p
1178,1,1179,Block 9,1.0186109000001125,0.025,True,bus,bus,control,few large,u,u
1179,1,1180,Block 9,0.7958278999999493,0.05,True,bus,bus,high,many small,u,u
1180,1,1181,Block 9,1.3087142999997925,0.025,True,bus,bus,high,few large,u,u
1181,1,1182,Block 9,0.8665748000003077,0.1,False,bird,cat,control,many small,q,w
1182,1,1183,Block 9,1.0948358999999073,0.025,True,bus,bus,low,few large,u,u
1183,1,1184,Block 9,0.8504647999998269,0.025,True,tree,tree,high,many small,p,p
1184,1,1185,Block 9,1.917152999999871,0.025,False,cat,bird,high,many small,w,q
1185,1,1186,Block 9,0.9507874999999332,0.025,True,banana,banana,control,many small,r,r
1186,1,1187,Block 9,1.2499638999997842,0.1,True,building,building,control,few large,o,o
1187,1,1188,Block 9,1.8718574999998052,0.025,False,person,tree,high,many small,p,e
1188,1,1189,Block 9,1.5288264999999228,0.05,False,firehydrant,bird,high,many small,w,i
1189,1,1190,Block 9,0.8591470999999729,0.1,True,tree,tree,control,many small,p,p
1190,1,1191,Block 9,0.9716370000001008,0.05,True,bird,bird,control,few large,w,w
1191,1,1192,Block 9,0.9614244000003964,0.05,True,firehydrant,firehydrant,low,many small,i,i
1192,1,1193,Block 9,0.9135923999997432,0.05,True,building,building,low,few large,o,o
1193,1,1194,Block 9,1.2128695999999763,0.025,True,banana,banana,low,few large,r,r
1194,1,1195,Block 9,1.144814000000224,0.1,True,person,person,high,many small,e,e
1195,1,1196,Block 9,1.5260042999998404,0.05,True,bird,bird,control,few large,w,w
1196,1,1197,Block 9,1.9666971000001467,0.025,False,bird,tree,low,few large,p,w
1197,1,1198,Block 9,1.0514749000003576,0.05,True,bird,bird,high,few large,w,w
1198,1,1199,Block 9,0.9841169000001172,0.1,True,firehydrant,firehydrant,high,few large,i,i
1199,1,1200,Block 9,0.9023740000002364,0.05,True,tree,tree,control,few large,p,p
1200,1,1201,Block 9,0.8318728999997802,0.05,True,building,building,high,many small,o,o
1201,1,1202,Block 9,0.88570320000008,0.025,True,cat,cat,control,many small,q,q
1202,1,1203,Block 9,0.8565480999995998,0.05,True,tree,tree,high,many small,p,p
1203,1,1204,Block 9,1.0005537999995795,0.025,True,building,building,low,many small,o,o
1204,1,1205,Block 9,1.7277146999999786,0.05,True,bird,bird,control,many small,w,w
1205,1,1206,Block 9,1.389431300000069,0.05,True,firehydrant,firehydrant,low,few large,i,i
1206,1,1207,Block 9,0.7687556000000768,0.05,True,tree,tree,control,many small,p,p
1207,1,1208,Block 9,1.3094883999997364,0.05,True,bus,bus,control,many small,u,u
1208,1,1209,Block 9,0.9095259000000624,0.1,True,building,building,low,few large,o,o
1209,1,1210,Block 9,0.8778879000001325,0.025,True,firehydrant,firehydrant,high,many small,i,i
1210,1,1211,Block 9,0.9709806999999272,0.1,True,building,building,high,many small,o,o
1212,1,1213,Block 9,1.9397688999997629,0.05,True,bird,bird,low,few large,w,w
1213,1,1214,Block 9,0.8529795999997987,0.1,True,banana,banana,control,many small,r,r
1214,1,1215,Block 9,0.8906824000000597,0.05,True,building,building,low,few large,o,o
1215,1,1216,Block 9,0.8123891999998705,0.1,True,cat,cat,control,many small,q,q
1216,1,1217,Block 9,1.0103863999997884,0.05,True,bus,bus,low,few large,u,u
1217,1,1218,Block 9,2.168678999999884,0.1,True,person,person,low,many small,e,e
1218,1,1219,Block 9,0.8045194999999694,0.025,True,tree,tree,control,many small,p,p
1219,1,1220,Block 9,2.17957239999987,0.1,True,cat,cat,control,many small,q,q
1220,1,1221,Block 9,1.0955892000001768,0.025,True,building,building,low,few large,o,o
1221,1,1222,Block 9,1.111619900000278,0.05,True,building,building,high,few large,o,o
1222,1,1223,Block 9,0.9028001000001497,0.025,True,firehydrant,firehydrant,low,many small,i,i
1223,1,1224,Block 9,0.7393566999999166,0.1,True,bus,bus,high,few large,u,u
1224,1,1225,Block 9,1.1056198999999651,0.025,True,banana,banana,control,few large,r,r
1225,1,1226,Block 9,0.9280580999998164,0.05,False,firehydrant,person,high,few large,e,i
1226,1,1227,Block 9,1.890029400000003,0.05,False,bird,person,high,many small,e,w
1227,1,1228,Block 9,2.215712000000167,0.025,False,bird,cat,low,few large,q,w
1228,1,1229,Block 9,0.9935812999997324,0.05,True,firehydrant,firehydrant,high,many small,i,i
1229,1,1230,Block 9,0.8419998000003943,0.1,True,tree,tree,high,many small,p,p
1230,1,1231,Block 9,1.3476713000000018,0.1,True,person,person,low,many small,e,e
1231,1,1232,Block 9,1.0981061000002228,0.05,True,building,building,high,few large,o,o
1232,1,1233,Block 9,1.108282700000018,0.025,True,bird,bird,control,many small,w,w
1233,1,1234,Block 9,1.0516594000000623,0.025,True,cat,cat,low,many small,q,q
1234,1,1235,Block 9,1.0216107999999622,0.05,True,building,building,high,many small,o,o
1235,1,1236,Block 9,1.2256050000000869,0.025,True,tree,tree,high,few large,p,p
1236,1,1237,Block 9,0.7747097000001304,0.05,True,cat,cat,high,few large,q,q
1237,1,1238,Block 9,1.2613894000000982,0.1,True,tree,tree,high,few large,p,p
1238,1,1239,Block 9,0.7585408999998435,0.05,True,tree,tree,high,many small,p,p
1239,1,1240,Block 9,1.182430100000147,0.1,True,building,building,high,many small,o,o
1240,1,1241,Block 9,1.0372686999999132,0.1,True,bus,bus,high,few large,u,u
1241,1,1242,Block 9,1.4729072999998607,0.025,False,bird,tree,high,many small,p,w
1242,1,1243,Block 9,0.8927748999999494,0.05,True,firehydrant,firehydrant,control,few large,i,i
1243,1,1244,Block 9,1.132046199999877,0.05,True,bus,bus,low,few large,u,u
1244,1,1245,Block 9,1.323580299999776,0.05,True,bus,bus,high,few large,u,u
1245,1,1246,Block 9,1.1786981999998716,0.1,True,person,person,control,many small,e,e
1246,1,1247,Block 9,1.3264094999999545,0.05,False,bird,tree,high,many small,p,w
1247,1,1248,Block 9,0.8103946999999607,0.1,True,firehydrant,firehydrant,control,few large,i,i
1248,1,1249,Block 9,1.0923446000001604,0.05,True,bird,bird,low,many small,w,w
1249,1,1250,Block 9,0.8763678999998774,0.1,True,firehydrant,firehydrant,high,many small,i,i
1250,1,1251,Block 9,0.53990019999992,0.05,True,firehydrant,firehydrant,control,many small,i,i
1251,1,1252,Block 9,0.7614103999999315,0.1,True,bus,bus,control,few large,u,u
1252,1,1253,Block 9,0.9027784999998404,0.05,True,bus,bus,low,few large,u,u
1253,1,1254,Block 9,0.9168085000001156,0.025,True,person,person,control,many small,e,e
1254,1,1255,Block 9,1.3889514000002237,0.05,False,bird,person,low,many small,e,w
1255,1,1256,Block 9,1.0733816000001752,0.025,False,cat,tree,high,many small,p,q
1256,1,1257,Block 9,0.8446192999999766,0.1,True,firehydrant,firehydrant,low,few large,i,i
1257,1,1258,Block 9,1.3260826999999151,0.05,True,firehydrant,firehydrant,control,few large,i,i
1258,1,1259,Block 9,1.1035612999999105,0.05,True,person,person,high,few large,e,e
1259,1,1260,Block 9,1.0337048999999752,0.05,True,bus,bus,high,few large,u,u
1260,1,1261,Block 9,0.6464278999997077,0.1,True,tree,tree,high,few large,p,p
1261,1,1262,Block 9,0.8942676000001484,0.1,True,firehydrant,firehydrant,control,few large,i,i
1262,1,1263,Block 9,0.8223361999998815,0.025,True,tree,tree,high,many small,p,p
